workerid,proliferate.condition,button_rt,condition,correct,correct_tangram,failed_audio,failed_images,failed_video,gameId,internal_node_id,response,rt,selected,stimulus,success,text,time_elapsed,timeout,trial_index,trial_type,type,word,error
810,the one true condition,,,,,[],[],[],,0.0-0.0,,,,,True,,376,False,0,preload,,,
810,the one true condition,,,,,,,,,0.0-1.0,0,1541,," <center><img width=""300px"" src=""assets/stanford.png"" /></center><div id=""legal""></br>By answering the following questions, you are participating in a study being performed by cognitive scientists in the Stanford Department of Psychology. If you have questions about this research, please contact us at  <a href=""mailto://languagecoglab@gmail.com.""> languagecoglab@gmail.com</a>.You must be at least 18 years old to participate. Your participation in this research is voluntary. You may decline to answer any or all of the following questions. You may decline further participation, at any time, without adverse consequences. Your anonymity is assured; the researchers who have requested your participation will not receive any personal information about you. </div></br>",,,1918,,1,html-button-response,,,
810,the one true condition,,,,,,,,,0.0-2.0,0,10451,,"<h3>Please read these instructions carefully!</h3> </br><div id=""intro""> <p>In this task, you will see a <b>transcript of a conversation</b> some previous participants had where a <b>speaker identified one of the images to some listeners</b>.</p></br><center><img width=""600px"" src=""assets/demo.png"" /></center></br><p>Your goal is to <b>read the transcript</b> and <b>figure out which image</b> is being described! </p><p>You will <b>click the image</b> you think is being described, and then you will <b>find out if you were right</b>.<p><p>You will see <b>60 trials</b>. The image choices will stay the same, but the transcripts will come from different groups of people. Some of the transcripts may be much shorter or longer than others. Some of the descriptions may be hard to understand -- just take a guess if you are not sure.</p><p>You will get a bonus of <b>5 cents</b> for each image you get right! </p><p> <b>Note:</b> These descriptions came from real people and may contain inappropriate or offensive language. If you find a description inappropriate, please let us know via Prolific message or in the exit survey, so we can filter it out in the future.</p>",,,12370,,2,html-button-response,,,
810,the one true condition,89029,2_rotate_1,False,B,,,,gjooqsuf2CPN5AWxi,0.0-3.0-0.0,6,[],L,,,"[{'role': 'speaker', 'text': ""diamond head on the top, another triangle on the right hand side connecting at the 'neck'"", 'playerId': 'tuNTPZ2dpnLz8EKgu'}]",101400,,3,spr-buttons,selection,[],
810,the one true condition,,,,,,,,,0.0-3.0-1.0,,[],,,,,102307,,4,spr-buttons,feedback,[],
810,the one true condition,6543,6_rotate_6,True,C,,,,57QkWqXASdPMDFRmA,0.0-3.0-0.1,8,[],C,,,"[{'role': 'speaker', 'text': 'ghost', 'playerId': 'G2cRaG8fekyPR6Msn'}, {'role': 'speaker', 'text': 'both arms up high left right', 'playerId': 'G2cRaG8fekyPR6Msn'}, {'role': 'speaker', 'text': 'leaning to left', 'playerId': 'G2cRaG8fekyPR6Msn'}]",108851,,5,spr-buttons,selection,[],
810,the one true condition,,,,,,,,,0.0-3.0-1.1,,[],,,,,109756,,6,spr-buttons,feedback,[],
810,the one true condition,4836,6_rotate_1,True,E,,,,4mKoevW3ykd2FDr7L,0.0-3.0-0.2,2,[],E,,,"[{'role': 'speaker', 'text': 'square head with two triangles on top', 'playerId': 'dWap3TF2ZN4rH5aCK'}, {'role': 'speaker', 'text': 'looks sort of like a bunny', 'playerId': 'dWap3TF2ZN4rH5aCK'}, {'role': 'listener', 'text': 'Body of two triangles', 'playerId': 'jjY6d6CreGdbCxRHY'}, {'role': 'listener', 'text': 'One large', 'playerId': 'jjY6d6CreGdbCxRHY'}, {'role': 'listener', 'text': 'Kneeling', 'playerId': 'xmvvLCzW9MTfzSDYi'}, {'role': 'listener', 'text': 'Yes to kneeling', 'playerId': 'xmvvLCzW9MTfzSDYi'}, {'role': 'speaker', 'text': 'yes to two triangles', 'playerId': 'dWap3TF2ZN4rH5aCK'}, {'role': 'speaker', 'text': 'kneeling*', 'playerId': 'dWap3TF2ZN4rH5aCK'}, {'role': 'speaker', 'text': 'looks like sitting if anything', 'playerId': 'dWap3TF2ZN4rH5aCK'}]",114595,,7,spr-buttons,selection,[],
810,the one true condition,,,,,,,,,0.0-3.0-1.2,,[],,,,,115500,,8,spr-buttons,feedback,[],
810,the one true condition,26507,6_rotate_1,True,F,,,,znSiJdhs7sWk5xhgA,0.0-3.0-0.3,1,[],F,,,"[{'role': 'speaker', 'text': 'sitting down in slouched position facing left', 'playerId': 'HaYEtB56fe33ZSXjw'}, {'role': 'listener', 'text': 'legs out to the left', 'playerId': 'MJxZ4a3KWksjWMEYq'}, {'role': 'speaker', 'text': 'proper body shape', 'playerId': 'HaYEtB56fe33ZSXjw'}, {'role': 'listener', 'text': 'knees bent', 'playerId': 'y9i8sGWvbi53Zby2v'}, {'role': 'speaker', 'text': 'yes - knees bent', 'playerId': 'HaYEtB56fe33ZSXjw'}]",142010,,9,spr-buttons,selection,[],
810,the one true condition,,,,,,,,,0.0-3.0-1.3,,[],,,,,142922,,10,spr-buttons,feedback,[],
810,the one true condition,53401,2_rotate_6,True,G,,,,YyAyuHf7S76wsbCA6,0.0-3.0-0.4,10,[],G,,,"[{'role': 'speaker', 'text': ""Figure facing right Has a long 'train' hanging on floor on left side Arms outstretched"", 'playerId': '7R6jKabotwJFLSyNW'}, {'role': 'speaker', 'text': 'One had is up high to right, other is down low on right', 'playerId': '7R6jKabotwJFLSyNW'}]",196326,,11,spr-buttons,selection,[],
810,the one true condition,,,,,,,,,0.0-3.0-1.4,,[],,,,,197233,,12,spr-buttons,feedback,[],
810,the one true condition,5366,2_rotate_1,True,C,,,,2928FF7GcrkeFiDkh,0.0-3.0-0.5,8,[],C,,,"[{'role': 'speaker', 'text': 'Leaning way to the left Arms up like a Y', 'playerId': 'okkXLvTuqNbsZkBZ2'}]",202601,,13,spr-buttons,selection,[],
810,the one true condition,,,,,,,,,0.0-3.0-1.5,,[],,,,,203508,,14,spr-buttons,feedback,[],
810,the one true condition,33690,6_rotate_6,True,A,,,,k4otZKu35xehtF93F,0.0-3.0-0.6,4,[],A,,,"[{'role': 'speaker', 'text': 'football kick, one foot on the ground, both feet to the left', 'playerId': 'ybQ6avjhBa46uuw8Z'}, {'role': 'listener', 'text': 'lizard man', 'playerId': 'Sb5t7YLhHirE7JfNH'}]",237200,,15,spr-buttons,selection,[],
810,the one true condition,,,,,,,,,0.0-3.0-1.6,,[],,,,,238105,,16,spr-buttons,feedback,[],
810,the one true condition,4684,6_rotate_6,True,K,,,,znSiJdhs7sWk5xhgA,0.0-3.0-0.7,7,[],K,,,"[{'role': 'speaker', 'text': 'kneeling, facing right, tiny tail up a bit on left side', 'playerId': '4fTnjYS9Cge7Tv7ou'}]",242791,,17,spr-buttons,selection,[],
810,the one true condition,,,,,,,,,0.0-3.0-1.7,,[],,,,,243695,,18,spr-buttons,feedback,[],
810,the one true condition,17624,6_rotate_1,True,I,,,,aFykNpfLr9BqKdsFL,0.0-3.0-0.8,3,[],I,,,"[{'role': 'speaker', 'text': 'looks like a figure skater', 'playerId': 'qioaDCfDaa28TFEA8'}, {'role': 'speaker', 'text': 'one foot up', 'playerId': 'qioaDCfDaa28TFEA8'}, {'role': 'listener', 'text': 'looks a bit like baby shark coming out of her body', 'playerId': 'PXh3QTj6cPCJnZWk5'}, {'role': 'listener', 'text': 'Has it got the less than sign', 'playerId': 'PGAtCk8Ks2aJygddG'}]",261321,,19,spr-buttons,selection,[],
810,the one true condition,,,,,,,,,0.0-3.0-1.8,,[],,,,,262225,,20,spr-buttons,feedback,[],
810,the one true condition,10448,6_rotate_6,True,D,,,,nySo3NiJX7Kres7zm,0.0-3.0-0.9,5,[],D,,,"[{'role': 'speaker', 'text': 'Guy holding box to the left', 'playerId': 'ugNcH6z9oWCzD3uHh'}]",272675,,21,spr-buttons,selection,[],
810,the one true condition,,,,,,,,,0.0-3.0-1.9,,[],,,,,273582,,22,spr-buttons,feedback,[],
810,the one true condition,57394,6_rotate_1,True,A,,,,yPMhLu9xFgbC5dWLY,0.0-3.0-0.10,4,[],A,,,"[{'role': 'speaker', 'text': 'this one has two distinct ""feet""', 'playerId': '3HQ2FaXAPXevHQfsd'}, {'role': 'speaker', 'text': 'both are pointing left', 'playerId': '3HQ2FaXAPXevHQfsd'}, {'role': 'listener', 'text': 'head leaning back', 'playerId': 'EHkiPLEZoGgAebkiQ'}, {'role': 'speaker', 'text': 'head leaning to the right', 'playerId': '3HQ2FaXAPXevHQfsd'}]",330978,,23,spr-buttons,selection,[],
810,the one true condition,,,,,,,,,0.0-3.0-1.10,,[],,,,,331883,,24,spr-buttons,feedback,[],
810,the one true condition,9450,6_rotate_6,True,L,,,,qzNuN6yp4HDWzko6T,0.0-3.0-0.11,6,[],L,,,"[{'role': 'speaker', 'text': 'Knees slightly bent to the right', 'playerId': 'raCR7oL7mP22ToCrY'}, {'role': 'speaker', 'text': 'Arms out to right as well', 'playerId': 'raCR7oL7mP22ToCrY'}, {'role': 'speaker', 'text': 'Not kneeling down completely', 'playerId': 'raCR7oL7mP22ToCrY'}, {'role': 'speaker', 'text': 'Flat back', 'playerId': 'raCR7oL7mP22ToCrY'}]",341336,,25,spr-buttons,selection,[],
810,the one true condition,,,,,,,,,0.0-3.0-1.11,,[],,,,,342241,,26,spr-buttons,feedback,[],
810,the one true condition,6775,2_rotate_6,True,K,,,,3A9hhryuHHeDQhoGy,0.0-3.0-0.12,7,[],K,,,"[{'role': 'speaker', 'text': 'full kneeling facing right', 'playerId': 'FqnLSC6GxDNz6hS73'}]",349018,,27,spr-buttons,selection,[],
810,the one true condition,,,,,,,,,0.0-3.0-1.12,,[],,,,,349923,,28,spr-buttons,feedback,[],
810,the one true condition,4092,2_rotate_6,True,D,,,,FfK5QXXSw833vwHKX,0.0-3.0-0.13,5,[],D,,,"[{'role': 'speaker', 'text': 'box in hand', 'playerId': 'psDWD9d3xQGdFFP7Q'}]",354017,,29,spr-buttons,selection,[],
810,the one true condition,,,,,,,,,0.0-3.0-1.13,,[],,,,,354922,,30,spr-buttons,feedback,[],
810,the one true condition,3782,2_rotate_1,True,C,,,,79swBZFsJnrQuHvhd,0.0-3.0-0.14,8,[],C,,,"[{'role': 'speaker', 'text': 'man leaning left with both arms in the air', 'playerId': 'wQmTAXk3WXqT2b275'}]",358705,,31,spr-buttons,selection,[],
810,the one true condition,,,,,,,,,0.0-3.0-1.14,,[],,,,,359610,,32,spr-buttons,feedback,[],
810,the one true condition,11323,2_rotate_1,False,H,,,,BLSAokwRgraiCPo9R,0.0-3.0-0.15,10,[],G,,,"[{'role': 'speaker', 'text': 'Blob looking one that kinda goes out to the right at the bottom', 'playerId': 'fEZ4SiL7SCcPWuGZi'}]",370935,,33,spr-buttons,selection,[],
810,the one true condition,,,,,,,,,0.0-3.0-1.15,,[],,,,,371840,,34,spr-buttons,feedback,[],
810,the one true condition,10544,6_rotate_6,True,L,,,,57QkWqXASdPMDFRmA,0.0-3.0-0.16,6,[],L,,,"[{'role': 'speaker', 'text': 'half kneel facing right with tray', 'playerId': 'G2cRaG8fekyPR6Msn'}, {'role': 'speaker', 'text': 'uptight diamond head', 'playerId': 'G2cRaG8fekyPR6Msn'}]",382385,,35,spr-buttons,selection,[],
810,the one true condition,,,,,,,,,0.0-3.0-1.16,,[],,,,,383292,,36,spr-buttons,feedback,[],
810,the one true condition,8959,2_rotate_1,False,H,,,,8a3bQ2zrC7JzYqEJ6,0.0-3.0-0.17,2,[],E,,,"[{'role': 'speaker', 'text': 'This looks like a person wrapped in a snuggie kneeling down', 'playerId': 'QG9QyuRkmCKFr7dCn'}, {'role': 'listener', 'text': 'are there two triangles coming off of the square', 'playerId': 'yH7KZ9hMajzHzMKGm'}, {'role': 'speaker', 'text': 'No, the square is the only clear shape', 'playerId': 'QG9QyuRkmCKFr7dCn'}, {'role': 'listener', 'text': 'to the right of the square is there a pointy triangle coming off', 'playerId': 'yH7KZ9hMajzHzMKGm'}]",392254,,37,spr-buttons,selection,[],
810,the one true condition,,,,,,,,,0.0-3.0-1.17,,[],,,,,393159,,38,spr-buttons,feedback,[],
810,the one true condition,2529,2_rotate_1,True,E,,,,Ja6HX8DgvFAspRAYm,0.0-3.0-0.18,2,[],E,,,"[{'role': 'speaker', 'text': 'A person sitting down with bunny ears Their head is tilted down and their back is to the left facing the left', 'playerId': 'QnqvYmzn62jtaac7w'}]",395690,,39,spr-buttons,selection,[],
810,the one true condition,,,,,,,,,0.0-3.0-1.18,,[],,,,,396594,,40,spr-buttons,feedback,[],
810,the one true condition,4628,2_rotate_1,True,L,,,,GpF4Ge9YCd7ih3DFr,0.0-3.0-0.19,6,[],L,,,"[{'role': 'speaker', 'text': 'facing right', 'playerId': 'cjtnTXrerxbK7pi39'}, {'role': 'speaker', 'text': 'not completely kneeling', 'playerId': 'cjtnTXrerxbK7pi39'}, {'role': 'speaker', 'text': 'but bent over', 'playerId': 'cjtnTXrerxbK7pi39'}, {'role': 'speaker', 'text': 'this one has a triangle coming out of the CHEST area', 'playerId': 'cjtnTXrerxbK7pi39'}, {'role': 'speaker', 'text': ""head in the middle, square is so that it looks like he's looking up"", 'playerId': 'cjtnTXrerxbK7pi39'}, {'role': 'speaker', 'text': 'there are two that look like this tbh', 'playerId': 'cjtnTXrerxbK7pi39'}, {'role': 'listener', 'text': 'is there a bit sticking out of the bottom left like a foot', 'playerId': '9DEoh9BWkZFYxhECs'}, {'role': 'speaker', 'text': 'no, his ""feet"" are completely flat to the ground', 'playerId': 'cjtnTXrerxbK7pi39'}, {'role': 'speaker', 'text': 'left and right side of the ""legs"" look like zig zags', 'playerId': 'cjtnTXrerxbK7pi39'}, {'role': 'listener', 'text': 'is the head shape like a diamond rather than square', 'playerId': '9DEoh9BWkZFYxhECs'}]",401224,,41,spr-buttons,selection,[],
810,the one true condition,,,,,,,,,0.0-3.0-1.19,,[],,,,,402130,,42,spr-buttons,feedback,[],
810,the one true condition,21212,2_rotate_1,False,B,,,,Ja6HX8DgvFAspRAYm,0.0-3.0-0.20,4,[],A,,,"[{'role': 'speaker', 'text': 'This one does not look like a person to me So at the top there is a square (with a corner on on the top and bottom it is not on its flat side), and to the bottom right attached to the square is a triangle And then attached to the bottom left of the square, and this is the biggest area of this picture, is a strange shape This shape looks like a house shape on the bottom, with a right triangle at the top', 'playerId': 'QnqvYmzn62jtaac7w'}]",423344,,43,spr-buttons,selection,[],
810,the one true condition,,,,,,,,,0.0-3.0-1.20,,[],,,,,424250,,44,spr-buttons,feedback,[],
810,the one true condition,12151,6_rotate_6,True,J,,,,7i3mnwWykEA95fvyk,0.0-3.0-0.21,9,[],J,,,"[{'role': 'speaker', 'text': 'straight edge along left side, wine glass shape on right side', 'playerId': '6bYzncKaESZG3XQY3'}, {'role': 'speaker', 'text': 'with diamond head', 'playerId': '6bYzncKaESZG3XQY3'}, {'role': 'speaker', 'text': 'thick one', 'playerId': '6bYzncKaESZG3XQY3'}, {'role': 'listener', 'text': 'the thicc one', 'playerId': 'HPXeHqtHCBw7Cg7WX'}, {'role': 'listener', 'text': 'the thickest one', 'playerId': 'p6CCFkkoFA2BfijAB'}]",436402,,45,spr-buttons,selection,[],
810,the one true condition,,,,,,,,,0.0-3.0-1.21,,[],,,,,437307,,46,spr-buttons,feedback,[],
810,the one true condition,6898,6_rotate_6,True,G,,,,cLaK88862bv7MHMuQ,0.0-3.0-0.22,10,[],G,,,"[{'role': 'speaker', 'text': 'square head to the left of body barely attached', 'playerId': 'gd4Mbi8awyKfZgvka'}]",444207,,47,spr-buttons,selection,[],
810,the one true condition,,,,,,,,,0.0-3.0-1.22,,[],,,,,445111,,48,spr-buttons,feedback,[],
810,the one true condition,13675,6_rotate_6,False,B,,,,znSiJdhs7sWk5xhgA,0.0-3.0-0.23,8,[],C,,,"[{'role': 'speaker', 'text': '""handmaid\'s tale""', 'playerId': '4fTnjYS9Cge7Tv7ou'}, {'role': 'speaker', 'text': 'two arms, one on each side', 'playerId': '4fTnjYS9Cge7Tv7ou'}]",458787,,49,spr-buttons,selection,[],
810,the one true condition,,,,,,,,,0.0-3.0-1.23,,[],,,,,459691,,50,spr-buttons,feedback,[],
810,the one true condition,4280,2_rotate_6,False,A,,,,2Csg2Snzrpkud2YRi,0.0-3.0-0.24,2,[],E,,,"[{'role': 'speaker', 'text': 'sad bear', 'playerId': 'zyXatFB2smLy5NLCL'}]",463973,,51,spr-buttons,selection,[],
810,the one true condition,,,,,,,,,0.0-3.0-1.24,,[],,,,,464878,,52,spr-buttons,feedback,[],
810,the one true condition,42654,6_rotate_1,False,D,,,,qzNuN6yp4HDWzko6T,0.0-3.0-0.25,10,[],G,,,"[{'role': 'listener', 'text': 'like a 2 legged clockwork duckman', 'playerId': 'EoXqRaKYwsdCQXsvi'}, {'role': 'listener', 'text': 'head slightly down back facing right', 'playerId': 'iv6pB9Y4KpdXvuwFe'}, {'role': 'speaker', 'text': 'He is a stand-up person', 'playerId': 'eAaeMJEcW8LDwgBSn'}, {'role': 'listener', 'text': 'leg up', 'playerId': 'iv6pB9Y4KpdXvuwFe'}, {'role': 'listener', 'text': 'looks like someone with a beak looking at the ground, walking left', 'playerId': 'EoXqRaKYwsdCQXsvi'}, {'role': 'speaker', 'text': 'Holding something to the left', 'playerId': 'eAaeMJEcW8LDwgBSn'}, {'role': 'listener', 'text': 'with a square poking out of their back, like a wind up key', 'playerId': 'EoXqRaKYwsdCQXsvi'}]",507534,,53,spr-buttons,selection,[],
810,the one true condition,,,,,,,,,0.0-3.0-1.25,,[],,,,,508439,,54,spr-buttons,feedback,[],
810,the one true condition,2416,2_rotate_1,False,L,,,,BLSAokwRgraiCPo9R,0.0-3.0-0.26,7,[],K,,,"[{'role': 'speaker', 'text': 'Kneeling and praying pose', 'playerId': 'fEZ4SiL7SCcPWuGZi'}]",510858,,55,spr-buttons,selection,[],
810,the one true condition,,,,,,,,,0.0-3.0-1.26,,[],,,,,511761,,56,spr-buttons,feedback,[],
810,the one true condition,2616,6_rotate_1,True,C,,,,qzNuN6yp4HDWzko6T,0.0-3.0-0.27,8,[],C,,,"[{'role': 'speaker', 'text': 'It looks like a goalkeeper diving for a ball', 'playerId': 'eAaeMJEcW8LDwgBSn'}, {'role': 'listener', 'text': 'Does he have legs or just arms', 'playerId': 'raCR7oL7mP22ToCrY'}, {'role': 'listener', 'text': '\\o', 'playerId': 'EoXqRaKYwsdCQXsvi'}]",514378,,57,spr-buttons,selection,[],
810,the one true condition,,,,,,,,,0.0-3.0-1.27,,[],,,,,515282,,58,spr-buttons,feedback,[],
810,the one true condition,5748,2_rotate_6,True,I,,,,2Csg2Snzrpkud2YRi,0.0-3.0-0.28,3,[],I,,,"[{'role': 'speaker', 'text': 'guy on one leg', 'playerId': 'zyXatFB2smLy5NLCL'}, {'role': 'speaker', 'text': 'other leg up and to the right', 'playerId': 'zyXatFB2smLy5NLCL'}]",521033,,59,spr-buttons,selection,[],
810,the one true condition,,,,,,,,,0.0-3.0-1.28,,[],,,,,521936,,60,spr-buttons,feedback,[],
810,the one true condition,4432,2_rotate_6,False,D,,,,GpF4Ge9YCd7ih3DFr,0.0-3.0-0.29,7,[],K,,,"[{'role': 'speaker', 'text': 'monk facing left with tray, diamond head', 'playerId': '9DEoh9BWkZFYxhECs'}]",526370,,61,spr-buttons,selection,[],
810,the one true condition,,,,,,,,,0.0-3.0-1.29,,[],,,,,527287,,62,spr-buttons,feedback,[],
810,the one true condition,18377,6_rotate_1,True,I,,,,4mKoevW3ykd2FDr7L,0.0-3.0-0.30,3,[],I,,,"[{'role': 'speaker', 'text': 'its the other image', 'playerId': 'dWap3TF2ZN4rH5aCK'}, {'role': 'speaker', 'text': 'that was chosen', 'playerId': 'dWap3TF2ZN4rH5aCK'}, {'role': 'speaker', 'text': 'the martial artist', 'playerId': 'dWap3TF2ZN4rH5aCK'}, {'role': 'speaker', 'text': 'one leg in the air', 'playerId': 'dWap3TF2ZN4rH5aCK'}, {'role': 'speaker', 'text': 'the other on the ground', 'playerId': 'dWap3TF2ZN4rH5aCK'}, {'role': 'speaker', 'text': 'arms facing left', 'playerId': 'dWap3TF2ZN4rH5aCK'}, {'role': 'listener', 'text': 'the two triangles on top of each other facing left', 'playerId': 'vwpmmXPfWPvNcd9RA'}]",545666,,63,spr-buttons,selection,[],
810,the one true condition,,,,,,,,,0.0-3.0-1.30,,[],,,,,546571,,64,spr-buttons,feedback,[],
810,the one true condition,1142,2_rotate_6,True,E,,,,gjooqsuf2CPN5AWxi,0.0-3.0-0.31,2,[],E,,,"[{'role': 'speaker', 'text': 'bunny ears', 'playerId': 'SzYY9C53Ne7cMaPHC'}]",547715,,65,spr-buttons,selection,[],
810,the one true condition,,,,,,,,,0.0-3.0-1.31,,[],,,,,548619,,66,spr-buttons,feedback,[],
810,the one true condition,5713,2_rotate_1,True,I,,,,2928FF7GcrkeFiDkh,0.0-3.0-0.32,3,[],I,,,"[{'role': 'speaker', 'text': 'The one you just chose I think this looks like a figure skater', 'playerId': 'okkXLvTuqNbsZkBZ2'}]",554332,,67,spr-buttons,selection,[],
810,the one true condition,,,,,,,,,0.0-3.0-1.32,,[],,,,,555236,,68,spr-buttons,feedback,[],
810,the one true condition,3888,2_rotate_6,False,D,,,,hu2zy5uGrN4qJ7qqe,0.0-3.0-0.33,1,[],F,,,"[{'role': 'speaker', 'text': 'facing left reading a book, straight legs', 'playerId': 'p7qxLz4WrSqvxaYy3'}]",559126,,69,spr-buttons,selection,[],
810,the one true condition,,,,,,,,,0.0-3.0-1.33,,[],,,,,560030,,70,spr-buttons,feedback,[],
810,the one true condition,7411,2_rotate_6,False,H,,,,of4gY8Bu37PbmkPee,0.0-3.0-0.34,10,[],G,,,"[{'role': 'speaker', 'text': 'no legs', 'playerId': '7NrLvX7rfwB2y54ZF'}, {'role': 'speaker', 'text': 'protrudes on right', 'playerId': '7NrLvX7rfwB2y54ZF'}]",567443,,71,spr-buttons,selection,[],
810,the one true condition,,,,,,,,,0.0-3.0-1.34,,[],,,,,568347,,72,spr-buttons,feedback,[],
810,the one true condition,4752,6_rotate_1,True,D,,,,6bkpQbsv6wvHWczvB,0.0-3.0-0.35,5,[],D,,,"[{'role': 'speaker', 'text': 'it looks like a guy is holding a cup of soup facing to the left of your screen', 'playerId': 'pNzsWQrabqXgTRTpu'}]",573102,,73,spr-buttons,selection,[],
810,the one true condition,,,,,,,,,0.0-3.0-1.35,,[],,,,,574007,,74,spr-buttons,feedback,[],
810,the one true condition,14043,6_rotate_1,True,A,,,,QiHQvZjkmw7v9k3P4,0.0-3.0-0.36,4,[],A,,,"[{'role': 'speaker', 'text': 'head at the neck', 'playerId': 'Rju3Fq3cNiFHZ94te'}, {'role': 'speaker', 'text': 'facing to the left', 'playerId': 'Rju3Fq3cNiFHZ94te'}, {'role': 'speaker', 'text': 'one leg is raised', 'playerId': 'Rju3Fq3cNiFHZ94te'}, {'role': 'listener', 'text': 'other foot on ground', 'playerId': 'hzsGC7CBSPkMEyDXq'}, {'role': 'listener', 'text': 'has he got a flag', 'playerId': 'mj43ozqpH4CgJjpyz'}, {'role': 'listener', 'text': 'over his shoulder', 'playerId': 'mj43ozqpH4CgJjpyz'}, {'role': 'listener', 'text': 'sq on the shoulder>', 'playerId': 'jEzRik8ujt4jnrqFG'}, {'role': 'speaker', 'text': 'one leg raised', 'playerId': 'Rju3Fq3cNiFHZ94te'}, {'role': 'listener', 'text': ""Head looks like it's leaning backwards"", 'playerId': 'hzsGC7CBSPkMEyDXq'}]",588052,,75,spr-buttons,selection,[],
810,the one true condition,,,,,,,,,0.0-3.0-1.36,,[],,,,,588957,,76,spr-buttons,feedback,[],
810,the one true condition,2901,6_rotate_6,True,K,,,,YcwXqvuyhhCeZ3GSZ,0.0-3.0-0.37,7,[],K,,,"[{'role': 'speaker', 'text': 'offering, kneeling, triangle on back', 'playerId': 't72k5QhnBy6LkmMFf'}]",591860,,77,spr-buttons,selection,[],
810,the one true condition,,,,,,,,,0.0-3.0-1.37,,[],,,,,592764,,78,spr-buttons,feedback,[],
810,the one true condition,8556,6_rotate_1,False,L,,,,znSiJdhs7sWk5xhgA,0.0-3.0-0.38,7,[],K,,,"[{'role': 'speaker', 'text': 'like a priest praying Facing right Almost in kneeling position', 'playerId': 'HaYEtB56fe33ZSXjw'}, {'role': 'listener', 'text': ""like he's giving a blessing>"", 'playerId': 'MJxZ4a3KWksjWMEYq'}, {'role': 'speaker', 'text': 'No tail or legs in the air', 'playerId': 'HaYEtB56fe33ZSXjw'}, {'role': 'listener', 'text': 'arms out straight', 'playerId': 'y9i8sGWvbi53Zby2v'}, {'role': 'listener', 'text': 'head straight', 'playerId': '4wFAfmjjb76mZMNtd'}]",601320,,79,spr-buttons,selection,[],
810,the one true condition,,,,,,,,,0.0-3.0-1.38,,[],,,,,602224,,80,spr-buttons,feedback,[],
810,the one true condition,12536,2_rotate_6,False,D,,,,2928FF7GcrkeFiDkh,0.0-3.0-0.39,4,[],A,,,"[{'role': 'speaker', 'text': 'standing facing left, arms further out than legs', 'playerId': '5L7PZWTLhnYMGQE8b'}]",614763,,81,spr-buttons,selection,[],
810,the one true condition,,,,,,,,,0.0-3.0-1.39,,[],,,,,615666,,82,spr-buttons,feedback,[],
810,the one true condition,3027,6_rotate_6,True,C,,,,7i3mnwWykEA95fvyk,0.0-3.0-0.40,8,[],C,,,"[{'role': 'speaker', 'text': 'ghost with arms out oup', 'playerId': '6bYzncKaESZG3XQY3'}, {'role': 'speaker', 'text': 'up', 'playerId': '6bYzncKaESZG3XQY3'}]",618695,,83,spr-buttons,selection,[],
810,the one true condition,,,,,,,,,0.0-3.0-1.40,,[],,,,,619599,,84,spr-buttons,feedback,[],
810,the one true condition,1110,6_rotate_6,True,E,,,,nySo3NiJX7Kres7zm,0.0-3.0-0.41,2,[],E,,,"[{'role': 'speaker', 'text': 'Bunny man!', 'playerId': 'ugNcH6z9oWCzD3uHh'}]",620710,,85,spr-buttons,selection,[],
810,the one true condition,,,,,,,,,0.0-3.0-1.41,,[],,,,,621613,,86,spr-buttons,feedback,[],
810,the one true condition,3053,2_rotate_1,False,A,,,,2928FF7GcrkeFiDkh,0.0-3.0-0.42,3,[],I,,,"[{'role': 'speaker', 'text': 'looks like kick at the end of Karate Kid', 'playerId': 'okkXLvTuqNbsZkBZ2'}]",624667,,87,spr-buttons,selection,[],
810,the one true condition,,,,,,,,,0.0-3.0-1.42,,[],,,,,625572,,88,spr-buttons,feedback,[],
810,the one true condition,7080,2_rotate_1,True,K,,,,FfK5QXXSw833vwHKX,0.0-3.0-0.43,7,[],K,,,"[{'role': 'speaker', 'text': 'looks like someone praying on their knees', 'playerId': '6iMbQKiFyJ2YwPaeo'}, {'role': 'speaker', 'text': 'facing right', 'playerId': '6iMbQKiFyJ2YwPaeo'}]",632653,,89,spr-buttons,selection,[],
810,the one true condition,,,,,,,,,0.0-3.0-1.43,,[],,,,,633557,,90,spr-buttons,feedback,[],
810,the one true condition,19507,6_rotate_1,True,H,,,,57QkWqXASdPMDFRmA,0.0-3.0-0.44,0,[],H,,,"[{'role': 'speaker', 'text': 'looks like half a banana with a diamond on top', 'playerId': 'foLY9seHz9WKw4HPk'}, {'role': 'listener', 'text': 'no arms', 'playerId': 'G2cRaG8fekyPR6Msn'}, {'role': 'speaker', 'text': 'no arms', 'playerId': 'foLY9seHz9WKw4HPk'}, {'role': 'listener', 'text': 'curved', 'playerId': 'eXYo8Pa5AjP8RZ5ED'}, {'role': 'listener', 'text': 'No other angles', 'playerId': 'PhukZyyqKFDxhsjYv'}, {'role': 'listener', 'text': 'is it an upright banana', 'playerId': 'kSyYrH7xx66AeKjLF'}, {'role': 'speaker', 'text': 'upright', 'playerId': 'foLY9seHz9WKw4HPk'}, {'role': 'listener', 'text': 'two shapes - no appendages', 'playerId': 'G2cRaG8fekyPR6Msn'}, {'role': 'listener', 'text': 'leaning left or right', 'playerId': 'eXYo8Pa5AjP8RZ5ED'}, {'role': 'speaker', 'text': 'bottom leaning right', 'playerId': 'foLY9seHz9WKw4HPk'}]",653067,,91,spr-buttons,selection,[],
810,the one true condition,,,,,,,,,0.0-3.0-1.44,,[],,,,,653973,,92,spr-buttons,feedback,[],
810,the one true condition,14309,2_rotate_6,True,K,,,,2Csg2Snzrpkud2YRi,0.0-3.0-0.45,7,[],K,,,"[{'role': 'speaker', 'text': 'diamond on diamond', 'playerId': 'zyXatFB2smLy5NLCL'}]",668284,,93,spr-buttons,selection,[],
810,the one true condition,,,,,,,,,0.0-3.0-1.45,,[],,,,,669188,,94,spr-buttons,feedback,[],
810,the one true condition,2936,6_rotate_6,False,C,,,,yPMhLu9xFgbC5dWLY,0.0-3.0-0.46,10,[],G,,,"[{'role': 'speaker', 'text': 'Whaaat', 'playerId': 'awLY4XCudoFs3HNWo'}]",672126,,95,spr-buttons,selection,[],
810,the one true condition,,,,,,,,,0.0-3.0-1.46,,[],,,,,673030,,96,spr-buttons,feedback,[],
810,the one true condition,8437,2_rotate_1,False,I,,,,dBAksjEwZCAZRyqJk,0.0-3.0-0.47,4,[],A,,,"[{'role': 'speaker', 'text': 'one foot on the ground the other at a 90 degree off the ground to the other foot', 'playerId': 'g2sowCsDmoh28sbgq'}]",681469,,97,spr-buttons,selection,[],
810,the one true condition,,,,,,,,,0.0-3.0-1.47,,[],,,,,682373,,98,spr-buttons,feedback,[],
810,the one true condition,4506,2_rotate_1,True,F,,,,YLCrDGMMiennGjggY,0.0-3.0-0.48,1,[],F,,,"[{'role': 'speaker', 'text': 'this looks like a sad person sitting on the ground', 'playerId': '9KnsNqjRjt4q7CtbN'}, {'role': 'speaker', 'text': 'diamond shaped head on the top right', 'playerId': '9KnsNqjRjt4q7CtbN'}, {'role': 'listener', 'text': 'Is person facing left with legs bend', 'playerId': 'sRndTvhfyBR67QCdv'}]",686881,,99,spr-buttons,selection,[],
810,the one true condition,,,,,,,,,0.0-3.0-1.48,,[],,,,,687786,,100,spr-buttons,feedback,[],
810,the one true condition,3717,2_rotate_6,True,L,,,,52Z92z3wj7TxhCe3X,0.0-3.0-0.49,6,[],L,,,"[{'role': 'speaker', 'text': 'crouching', 'playerId': 'jDNNo5YT7r2NRqawS'}]",691505,,101,spr-buttons,selection,[],
810,the one true condition,,,,,,,,,0.0-3.0-1.49,,[],,,,,692409,,102,spr-buttons,feedback,[],
810,the one true condition,17428,2_rotate_6,False,K,,,,of4gY8Bu37PbmkPee,0.0-3.0-0.50,0,[],H,,,"[{'role': 'speaker', 'text': 'diamond b', 'playerId': '7NrLvX7rfwB2y54ZF'}]",709840,,103,spr-buttons,selection,[],
810,the one true condition,,,,,,,,,0.0-3.0-1.50,,[],,,,,710744,,104,spr-buttons,feedback,[],
810,the one true condition,1928,6_rotate_6,True,E,,,,cLaK88862bv7MHMuQ,0.0-3.0-0.51,2,[],E,,,"[{'role': 'speaker', 'text': 'bunny ears windmill', 'playerId': 'gd4Mbi8awyKfZgvka'}]",712674,,105,spr-buttons,selection,[],
810,the one true condition,,,,,,,,,0.0-3.0-1.51,,[],,,,,713579,,106,spr-buttons,feedback,[],
810,the one true condition,4108,2_rotate_6,True,A,,,,pAtG6vt3AyaJypa2j,0.0-3.0-0.52,4,[],A,,,"[{'role': 'speaker', 'text': 'walking, triangle head pointing down', 'playerId': 'kNihCF3o2LNDkwQs5'}]",717688,,107,spr-buttons,selection,[],
810,the one true condition,,,,,,,,,0.0-3.0-1.52,,[],,,,,718592,,108,spr-buttons,feedback,[],
810,the one true condition,7935,6_rotate_1,True,K,,,,ppvQxmgBzQniJp9K3,0.0-3.0-0.53,7,[],K,,,"[{'role': 'speaker', 'text': 'like someone kneeling praying with arms pointing right', 'playerId': 'GK7qetdhhFYnmv9aj'}, {'role': 'listener', 'text': 'pointy back', 'playerId': '67puAkQog5NuwZ6jP'}, {'role': 'listener', 'text': 'like maybe a kneeling ice skater or toes pointing up', 'playerId': 'CSEXDdvymSd6kiAKx'}, {'role': 'speaker', 'text': 'head joins onto another diamond shape', 'playerId': 'GK7qetdhhFYnmv9aj'}, {'role': 'speaker', 'text': 'although 2nd diamond blends into body', 'playerId': 'GK7qetdhhFYnmv9aj'}, {'role': 'listener', 'text': 'feet pointing to the sky', 'playerId': 'S8HakjpPRMSJBgrys'}]",726529,,109,spr-buttons,selection,[],
810,the one true condition,,,,,,,,,0.0-3.0-1.53,,[],,,,,727434,,110,spr-buttons,feedback,[],
810,the one true condition,5000,6_rotate_1,True,I,,,,6bkpQbsv6wvHWczvB,0.0-3.0-0.54,3,[],I,,,"[{'role': 'speaker', 'text': 'this one looks like a guy doing a yoga pose facing to the left of the screen', 'playerId': 'pNzsWQrabqXgTRTpu'}, {'role': 'listener', 'text': 'is he standing, or sitting', 'playerId': 'nBvdugvJzHQP7XcCx'}, {'role': 'listener', 'text': 'One leg up pointed to the right', 'playerId': 'X7jvW63Kpb8G6Dh7F'}, {'role': 'listener', 'text': 'Like ice skating', 'playerId': 'Chjp2rtMWxtmo8NPc'}, {'role': 'speaker', 'text': 'standing', 'playerId': 'pNzsWQrabqXgTRTpu'}, {'role': 'listener', 'text': 'leg out behind him to the right of the screen', 'playerId': 'tSAWYQtxPQqZnwgbT'}, {'role': 'speaker', 'text': 'it looks like a figure skater', 'playerId': 'pNzsWQrabqXgTRTpu'}, {'role': 'speaker', 'text': 'with a pointer head', 'playerId': 'pNzsWQrabqXgTRTpu'}]",732437,,111,spr-buttons,selection,[],
810,the one true condition,,,,,,,,,0.0-3.0-1.54,,[],,,,,733340,,112,spr-buttons,feedback,[],
810,the one true condition,5348,2_rotate_1,True,L,,,,52Z92z3wj7TxhCe3X,0.0-3.0-0.55,6,[],L,,,"[{'role': 'speaker', 'text': 'Person squatting - looks like reading Facing right with diamond head Knees pointed out towards the right Very straight back on the left', 'playerId': 'YjxxewuyohjoySxSn'}]",738691,,113,spr-buttons,selection,[],
810,the one true condition,,,,,,,,,0.0-3.0-1.55,,[],,,,,739596,,114,spr-buttons,feedback,[],
810,the one true condition,1942,6_rotate_6,True,I,,,,znSiJdhs7sWk5xhgA,0.0-3.0-0.56,3,[],I,,,"[{'role': 'speaker', 'text': 'ice skater', 'playerId': '4fTnjYS9Cge7Tv7ou'}, {'role': 'speaker', 'text': 'one foot on ground, one up', 'playerId': '4fTnjYS9Cge7Tv7ou'}]",741540,,115,spr-buttons,selection,[],
810,the one true condition,,,,,,,,,0.0-3.0-1.56,,[],,,,,742445,,116,spr-buttons,feedback,[],
810,the one true condition,37674,6_rotate_1,True,D,,,,57QkWqXASdPMDFRmA,0.0-3.0-0.57,5,[],D,,,"[{'role': 'speaker', 'text': 'standing upright', 'playerId': 'foLY9seHz9WKw4HPk'}, {'role': 'speaker', 'text': 'looks like it holding hands open', 'playerId': 'foLY9seHz9WKw4HPk'}, {'role': 'listener', 'text': 'What position are the legs', 'playerId': '4G9hab5MLzr3hzwbK'}, {'role': 'listener', 'text': 'one leg', 'playerId': 'G2cRaG8fekyPR6Msn'}, {'role': 'listener', 'text': 'praying to the left', 'playerId': 'eXYo8Pa5AjP8RZ5ED'}, {'role': 'speaker', 'text': 'feet facing left', 'playerId': 'foLY9seHz9WKw4HPk'}, {'role': 'listener', 'text': 'Upright but to the left', 'playerId': 'PhukZyyqKFDxhsjYv'}, {'role': 'listener', 'text': 'are both legs down or one up in the air', 'playerId': 'kSyYrH7xx66AeKjLF'}, {'role': 'listener', 'text': 'which way do the arms and head face', 'playerId': 'kSyYrH7xx66AeKjLF'}, {'role': 'speaker', 'text': ""looks like he's getting communion"", 'playerId': 'foLY9seHz9WKw4HPk'}, {'role': 'speaker', 'text': 'left', 'playerId': 'foLY9seHz9WKw4HPk'}, {'role': 'speaker', 'text': 'might look like a waiter', 'playerId': 'foLY9seHz9WKw4HPk'}]",780119,,117,spr-buttons,selection,[],
810,the one true condition,,,,,,,,,0.0-3.0-1.57,,[],,,,,781025,,118,spr-buttons,feedback,[],
810,the one true condition,2482,2_rotate_6,False,C,,,,52Z92z3wj7TxhCe3X,0.0-3.0-0.58,10,[],G,,,"[{'role': 'speaker', 'text': 'why me', 'playerId': 'jDNNo5YT7r2NRqawS'}]",783509,,119,spr-buttons,selection,[],
810,the one true condition,,,,,,,,,0.0-3.0-1.58,,[],,,,,784414,,120,spr-buttons,feedback,[],
810,the one true condition,6793,6_rotate_1,False,B,,,,4mKoevW3ykd2FDr7L,0.0-3.0-0.59,8,[],C,,,"[{'role': 'speaker', 'text': 'arms spread out', 'playerId': 'dWap3TF2ZN4rH5aCK'}, {'role': 'speaker', 'text': 'kneeling', 'playerId': 'dWap3TF2ZN4rH5aCK'}, {'role': 'speaker', 'text': 'facing right', 'playerId': 'dWap3TF2ZN4rH5aCK'}, {'role': 'listener', 'text': 'arms', 'playerId': 'vwpmmXPfWPvNcd9RA'}, {'role': 'speaker', 'text': 'look like triangles', 'playerId': 'dWap3TF2ZN4rH5aCK'}, {'role': 'listener', 'text': 'Two opposing triangles, it seems', 'playerId': 'jjY6d6CreGdbCxRHY'}, {'role': 'listener', 'text': 'feet pointing out left', 'playerId': 'T6rKRzHZ3WfgYdTDr'}]",791207,,121,spr-buttons,selection,[],
810,the one true condition,,,,,,,,,0.0-3.0-1.59,,[],,,,,792113,,122,spr-buttons,feedback,[],
810,the one true condition,,,,,,,,,0.0-4.0,"{'other': '', 'errors': 'No. Most of the times the users were clear, some were really funny (""it\'s a banana"") or one was ""why me"". The ""why me"" was hard and I couldn\'t understand which one he was referring to.', 'length': ""Absolutely could be longer, wasn't boring or tiring at all."", 'interface': 'The interface was good in my opinion.', 'understand': 'Everything was clear.'}",142835,,,,,934954,,123,survey-text,,,
810,the one true condition,,,,,,,,,0.0-5.0,0,6153,,"<h2>Many thanks for participating!</h2><p>We are generally interested in how people form conventions, such as shared 'nicknames' for images. Here, we are studying when these shared 'nicknames' are understandable to people who were not part of the group that created the nickname.</p><h1>Press continue to be redirected to Prolific. </h1>",,,941108,,124,html-button-response,,,
807,the one true condition,,,,,[],[],[],,0.0-0.0,,,,,True,,156,False,0,preload,,,
807,the one true condition,,,,,,,,,0.0-1.0,0,2418,," <center><img width=""300px"" src=""assets/stanford.png"" /></center><div id=""legal""></br>By answering the following questions, you are participating in a study being performed by cognitive scientists in the Stanford Department of Psychology. If you have questions about this research, please contact us at  <a href=""mailto://languagecoglab@gmail.com.""> languagecoglab@gmail.com</a>.You must be at least 18 years old to participate. Your participation in this research is voluntary. You may decline to answer any or all of the following questions. You may decline further participation, at any time, without adverse consequences. Your anonymity is assured; the researchers who have requested your participation will not receive any personal information about you. </div></br>",,,2576,,1,html-button-response,,,
807,the one true condition,,,,,,,,,0.0-2.0,0,47734,,"<h3>Please read these instructions carefully!</h3> </br><div id=""intro""> <p>In this task, you will see a <b>transcript of a conversation</b> some previous participants had where a <b>speaker identified one of the images to some listeners</b>.</p></br><center><img width=""600px"" src=""assets/demo.png"" /></center></br><p>Your goal is to <b>read the transcript</b> and <b>figure out which image</b> is being described! </p><p>You will <b>click the image</b> you think is being described, and then you will <b>find out if you were right</b>.<p><p>You will see <b>60 trials</b>. The image choices will stay the same, but the transcripts will come from different groups of people. Some of the transcripts may be much shorter or longer than others. Some of the descriptions may be hard to understand -- just take a guess if you are not sure.</p><p>You will get a bonus of <b>5 cents</b> for each image you get right! </p><p> <b>Note:</b> These descriptions came from real people and may contain inappropriate or offensive language. If you find a description inappropriate, please let us know via Prolific message or in the exit survey, so we can filter it out in the future.</p>",,,50312,,2,html-button-response,,,
807,the one true condition,12619,2_rotate_1,True,L,,,,pR4tb8CtSgCLLcMQY,0.0-3.0-0.0,5,[],L,,,"[{'role': 'speaker', 'text': 'a person squatting with arms in front', 'playerId': 'jMYJS2ANLmjazynqc'}]",62934,,3,spr-buttons,selection,[],
807,the one true condition,,,,,,,,,0.0-3.0-1.0,,[],,,,,63841,,4,spr-buttons,feedback,[],
807,the one true condition,2100,6_rotate_6,True,I,,,,yPMhLu9xFgbC5dWLY,0.0-3.0-0.1,0,[],I,,,"[{'role': 'speaker', 'text': 'ice skater', 'playerId': 'awLY4XCudoFs3HNWo'}]",65943,,5,spr-buttons,selection,[],
807,the one true condition,,,,,,,,,0.0-3.0-1.1,,[],,,,,66849,,6,spr-buttons,feedback,[],
807,the one true condition,2269,2_rotate_1,True,L,,,,dBAksjEwZCAZRyqJk,0.0-3.0-0.2,5,[],L,,,"[{'role': 'speaker', 'text': 'looks like they are half kneeling', 'playerId': 'g2sowCsDmoh28sbgq'}, {'role': 'speaker', 'text': 'with their hands out', 'playerId': 'g2sowCsDmoh28sbgq'}]",69119,,7,spr-buttons,selection,[],
807,the one true condition,,,,,,,,,0.0-3.0-1.2,,[],,,,,70027,,8,spr-buttons,feedback,[],
807,the one true condition,5860,2_rotate_6,True,F,,,,gjooqsuf2CPN5AWxi,0.0-3.0-0.3,8,[],F,,,"[{'role': 'speaker', 'text': 'sitting down knees up to chest', 'playerId': 'SzYY9C53Ne7cMaPHC'}]",75895,,9,spr-buttons,selection,[],
807,the one true condition,,,,,,,,,0.0-3.0-1.3,,[],,,,,76807,,10,spr-buttons,feedback,[],
807,the one true condition,18461,2_rotate_6,True,B,,,,52Z92z3wj7TxhCe3X,0.0-3.0-0.4,7,[],B,,,"[{'role': 'speaker', 'text': ""the one i can't describe - triangle to lower right of head, small triangle on bottom left"", 'playerId': 'jDNNo5YT7r2NRqawS'}, {'role': 'speaker', 'text': 'the one you said the one i tried last time', 'playerId': 'jDNNo5YT7r2NRqawS'}]",95271,,11,spr-buttons,selection,[],
807,the one true condition,,,,,,,,,0.0-3.0-1.4,,[],,,,,96179,,12,spr-buttons,feedback,[],
807,the one true condition,9702,6_rotate_1,False,A,,,,CojwM8x8ZFDB9Y6HF,0.0-3.0-0.5,0,[],I,,,"[{'role': 'speaker', 'text': 'itls like an animal', 'playerId': 'EzNkXZLQTRPpggasi'}, {'role': 'speaker', 'text': 'with the head down', 'playerId': 'EzNkXZLQTRPpggasi'}, {'role': 'speaker', 'text': 'facing left', 'playerId': 'EzNkXZLQTRPpggasi'}, {'role': 'speaker', 'text': 'and one foot on the floor', 'playerId': 'EzNkXZLQTRPpggasi'}, {'role': 'listener', 'text': 'dancing', 'playerId': 'qnjhZ585k3LjuELyR'}, {'role': 'speaker', 'text': 'and the other kicking up', 'playerId': 'EzNkXZLQTRPpggasi'}, {'role': 'listener', 'text': 'dancing up', 'playerId': 'qnjhZ585k3LjuELyR'}, {'role': 'speaker', 'text': 'with a box coming out of the back of its neck', 'playerId': 'EzNkXZLQTRPpggasi'}, {'role': 'listener', 'text': 'and a square diamond behind its head', 'playerId': 'xWiHkMcWveW5PDkSt'}, {'role': 'speaker', 'text': 'no arms', 'playerId': 'EzNkXZLQTRPpggasi'}, {'role': 'listener', 'text': 'The ice skater', 'playerId': 'WJorh6puwn4WDQkk3'}, {'role': 'listener', 'text': 'not the ice skater', 'playerId': 'qnjhZ585k3LjuELyR'}, {'role': 'speaker', 'text': ""it's kind of facing towards the bottom left"", 'playerId': 'EzNkXZLQTRPpggasi'}, {'role': 'listener', 'text': 'plague doctor looking down at his foot', 'playerId': 'qnjhZ585k3LjuELyR'}, {'role': 'speaker', 'text': ""it's like a point"", 'playerId': 'EzNkXZLQTRPpggasi'}, {'role': 'listener', 'text': 'his head is like he has a massive beak', 'playerId': 'xWiHkMcWveW5PDkSt'}, {'role': 'listener', 'text': 'The person doing a Frankenstein walk', 'playerId': 'WJorh6puwn4WDQkk3'}, {'role': 'listener', 'text': 'not with arms outstretched', 'playerId': 'qnjhZ585k3LjuELyR'}]",105887,,13,spr-buttons,selection,[],
807,the one true condition,,,,,,,,,0.0-3.0-1.5,,[],,,,,106795,,14,spr-buttons,feedback,[],
807,the one true condition,22988,6_rotate_1,True,D,,,,CojwM8x8ZFDB9Y6HF,0.0-3.0-0.6,2,[],D,,,"[{'role': 'speaker', 'text': ""it's like someone standing straight"", 'playerId': 'EzNkXZLQTRPpggasi'}, {'role': 'speaker', 'text': 'and the feet are kind of sticking out to the left but the legs are straight', 'playerId': 'EzNkXZLQTRPpggasi'}, {'role': 'listener', 'text': 'Diamond for the head', 'playerId': 'qnjhZ585k3LjuELyR'}, {'role': 'listener', 'text': 'Does it look like a candlestick with a bit jutting out to the left', 'playerId': 'WJorh6puwn4WDQkk3'}, {'role': 'listener', 'text': ""looks like he's wearing robes"", 'playerId': 'qnjhZ585k3LjuELyR'}, {'role': 'listener', 'text': 'does it look like someone reading a book', 'playerId': 'xWiHkMcWveW5PDkSt'}, {'role': 'speaker', 'text': 'with big sleeves', 'playerId': 'EzNkXZLQTRPpggasi'}, {'role': 'speaker', 'text': 'no not someone reading a book', 'playerId': 'EzNkXZLQTRPpggasi'}, {'role': 'listener', 'text': ""it's a tiny book"", 'playerId': 'qnjhZ585k3LjuELyR'}]",129792,,15,spr-buttons,selection,[],
807,the one true condition,,,,,,,,,0.0-3.0-1.6,,[],,,,,130702,,16,spr-buttons,feedback,[],
807,the one true condition,30872,2_rotate_1,False,G,,,,pAtG6vt3AyaJypa2j,0.0-3.0-0.7,7,[],B,,,"[{'role': 'speaker', 'text': 'The diamond head part is positioned to the left, tipping backward', 'playerId': '3D7MbrSZL62xJBhib'}, {'role': 'speaker', 'text': 'the legs are parallel with the floor, like if you were kneeling down, and the feet pointing to the left', 'playerId': '3D7MbrSZL62xJBhib'}, {'role': 'speaker', 'text': 'The bottom right is a triangle, with the tip of the triangle pointing downward and slightly to the left toward the knees', 'playerId': '3D7MbrSZL62xJBhib'}, {'role': 'speaker', 'text': 'The top right has a triangle attached with the base of the triangle pointing toward the right and the tip of the triangle attached to the body on the left', 'playerId': '3D7MbrSZL62xJBhib'}]",161584,,17,spr-buttons,selection,[],
807,the one true condition,,,,,,,,,0.0-3.0-1.7,,[],,,,,162492,,18,spr-buttons,feedback,[],
807,the one true condition,6012,2_rotate_6,False,L,,,,Ja6HX8DgvFAspRAYm,0.0-3.0-0.8,11,[],K,,,"[{'role': 'speaker', 'text': 'knee bent, feet on ground, bowl to right', 'playerId': 'Kzhdqc62M5vtN2q4e'}]",168512,,19,spr-buttons,selection,[],
807,the one true condition,,,,,,,,,0.0-3.0-1.8,,[],,,,,169419,,20,spr-buttons,feedback,[],
807,the one true condition,7550,6_rotate_6,True,G,,,,qzNuN6yp4HDWzko6T,0.0-3.0-0.9,3,[],G,,,"[{'role': 'speaker', 'text': 'Proposing one', 'playerId': 'raCR7oL7mP22ToCrY'}, {'role': 'speaker', 'text': 'Small triangle leg on the right', 'playerId': 'raCR7oL7mP22ToCrY'}, {'role': 'speaker', 'text': 'Arms up and head tilted back', 'playerId': 'raCR7oL7mP22ToCrY'}]",176976,,21,spr-buttons,selection,[],
807,the one true condition,,,,,,,,,0.0-3.0-1.9,,[],,,,,177883,,22,spr-buttons,feedback,[],
807,the one true condition,3468,6_rotate_1,True,D,,,,YcwXqvuyhhCeZ3GSZ,0.0-3.0-0.10,2,[],D,,,"[{'role': 'speaker', 'text': 'this one looks like a priest', 'playerId': 'TpNRiZ9WuhnFh5qYA'}, {'role': 'speaker', 'text': 'standing and holding a book', 'playerId': 'TpNRiZ9WuhnFh5qYA'}]",181360,,23,spr-buttons,selection,[],
807,the one true condition,,,,,,,,,0.0-3.0-1.10,,[],,,,,182269,,24,spr-buttons,feedback,[],
807,the one true condition,3067,6_rotate_6,True,I,,,,k4otZKu35xehtF93F,0.0-3.0-0.11,0,[],I,,,"[{'role': 'speaker', 'text': 'one foot on the ground, other foot kick to the right', 'playerId': 'ybQ6avjhBa46uuw8Z'}]",185343,,25,spr-buttons,selection,[],
807,the one true condition,,,,,,,,,0.0-3.0-1.11,,[],,,,,186248,,26,spr-buttons,feedback,[],
807,the one true condition,4217,2_rotate_6,False,G,,,,3A9hhryuHHeDQhoGy,0.0-3.0-0.12,11,[],K,,,"[{'role': 'speaker', 'text': 'vertical facing right with one leg kneeling,', 'playerId': 'FqnLSC6GxDNz6hS73'}]",190471,,27,spr-buttons,selection,[],
807,the one true condition,,,,,,,,,0.0-3.0-1.12,,[],,,,,191379,,28,spr-buttons,feedback,[],
807,the one true condition,5543,6_rotate_1,False,K,,,,aFykNpfLr9BqKdsFL,0.0-3.0-0.13,3,[],G,,,"[{'role': 'speaker', 'text': 'looks like a big mouth open towards the right', 'playerId': 'qioaDCfDaa28TFEA8'}, {'role': 'listener', 'text': 'Facing left or right', 'playerId': 'PGAtCk8Ks2aJygddG'}, {'role': 'listener', 'text': 'feet pointing to the left', 'playerId': 'NWj66Bd2kapty9H9h'}, {'role': 'speaker', 'text': 'has a diamond head', 'playerId': 'qioaDCfDaa28TFEA8'}, {'role': 'speaker', 'text': 'no ears', 'playerId': 'qioaDCfDaa28TFEA8'}, {'role': 'listener', 'text': 'triangular body', 'playerId': 'PXh3QTj6cPCJnZWk5'}, {'role': 'speaker', 'text': 'looks like a less than sign', 'playerId': 'qioaDCfDaa28TFEA8'}]",196927,,29,spr-buttons,selection,[],
807,the one true condition,,,,,,,,,0.0-3.0-1.13,,[],,,,,197839,,30,spr-buttons,feedback,[],
807,the one true condition,5130,2_rotate_6,False,J,,,,YLCrDGMMiennGjggY,0.0-3.0-0.14,4,[],H,,,"[{'role': 'speaker', 'text': '7 sided body with diamond head', 'playerId': 'sRndTvhfyBR67QCdv'}]",202976,,31,spr-buttons,selection,[],
807,the one true condition,,,,,,,,,0.0-3.0-1.14,,[],,,,,203889,,32,spr-buttons,feedback,[],
807,the one true condition,4846,6_rotate_1,True,A,,,,znSiJdhs7sWk5xhgA,0.0-3.0-0.15,10,[],A,,,"[{'role': 'speaker', 'text': 'like a dancing bear Facing left, 1 leg slightly lifted', 'playerId': 'HaYEtB56fe33ZSXjw'}, {'role': 'speaker', 'text': 'arms hanging to the right too', 'playerId': 'HaYEtB56fe33ZSXjw'}, {'role': 'speaker', 'text': 'head looks like it could fall off', 'playerId': 'HaYEtB56fe33ZSXjw'}, {'role': 'listener', 'text': 'it does look like a bear lol', 'playerId': 'y9i8sGWvbi53Zby2v'}]",208744,,33,spr-buttons,selection,[],
807,the one true condition,,,,,,,,,0.0-3.0-1.15,,[],,,,,209656,,34,spr-buttons,feedback,[],
807,the one true condition,14966,2_rotate_6,True,G,,,,Ja6HX8DgvFAspRAYm,0.0-3.0-0.16,3,[],G,,,"[{'role': 'speaker', 'text': 'kobra', 'playerId': 'Kzhdqc62M5vtN2q4e'}]",224632,,35,spr-buttons,selection,[],
807,the one true condition,,,,,,,,,0.0-3.0-1.16,,[],,,,,225539,,36,spr-buttons,feedback,[],
807,the one true condition,3276,2_rotate_1,True,D,,,,of4gY8Bu37PbmkPee,0.0-3.0-0.17,2,[],D,,,"[{'role': 'speaker', 'text': 'so right side is straight', 'playerId': 'HGiZGbRSXTDaGdsfH'}, {'role': 'speaker', 'text': 'and diamond on top', 'playerId': 'HGiZGbRSXTDaGdsfH'}]",228823,,37,spr-buttons,selection,[],
807,the one true condition,,,,,,,,,0.0-3.0-1.17,,[],,,,,229735,,38,spr-buttons,feedback,[],
807,the one true condition,22650,6_rotate_1,True,I,,,,93ZvRh5AYPNeTJxjv,0.0-3.0-0.18,0,[],I,,,"[{'role': 'speaker', 'text': 'on one leg', 'playerId': 'dTAmMQ6Zw5AbRzRiT'}, {'role': 'speaker', 'text': 'other leg pointing left', 'playerId': 'dTAmMQ6Zw5AbRzRiT'}, {'role': 'speaker', 'text': 'sort of balancing', 'playerId': 'dTAmMQ6Zw5AbRzRiT'}, {'role': 'speaker', 'text': 'to arms in front', 'playerId': 'dTAmMQ6Zw5AbRzRiT'}, {'role': 'listener', 'text': 'diamond head on very top right', 'playerId': '5a7w57CMsYw6nbJgN'}, {'role': 'listener', 'text': ""isn't other leg pointing right"", 'playerId': 'eJA6FpeTKabMYR8rb'}, {'role': 'speaker', 'text': 'yes right sorry', 'playerId': 'dTAmMQ6Zw5AbRzRiT'}, {'role': 'listener', 'text': 'Head looking forward not to the back', 'playerId': '5a7w57CMsYw6nbJgN'}, {'role': 'listener', 'text': 'looks like a tail', 'playerId': 'eJA6FpeTKabMYR8rb'}, {'role': 'speaker', 'text': 'yes looks like a tail', 'playerId': 'dTAmMQ6Zw5AbRzRiT'}]",252391,,39,spr-buttons,selection,[],
807,the one true condition,,,,,,,,,0.0-3.0-1.18,,[],,,,,253298,,40,spr-buttons,feedback,[],
807,the one true condition,8279,2_rotate_1,True,G,,,,52Z92z3wj7TxhCe3X,0.0-3.0-0.19,3,[],G,,,"[{'role': 'speaker', 'text': 'Box on the left Looks a bit like a seal lying down Triangle bottom right and top right Slim neck, and lower portion of the body sort of falls to the left', 'playerId': 'YjxxewuyohjoySxSn'}]",261583,,41,spr-buttons,selection,[],
807,the one true condition,,,,,,,,,0.0-3.0-1.19,,[],,,,,262489,,42,spr-buttons,feedback,[],
807,the one true condition,7263,6_rotate_6,True,J,,,,7i3mnwWykEA95fvyk,0.0-3.0-0.20,9,[],J,,,"[{'role': 'speaker', 'text': 'straight edge along left side, wine glass shape on right side', 'playerId': '6bYzncKaESZG3XQY3'}, {'role': 'speaker', 'text': 'with diamond head', 'playerId': '6bYzncKaESZG3XQY3'}, {'role': 'speaker', 'text': 'thick one', 'playerId': '6bYzncKaESZG3XQY3'}, {'role': 'listener', 'text': 'the thicc one', 'playerId': 'HPXeHqtHCBw7Cg7WX'}, {'role': 'listener', 'text': 'the thickest one', 'playerId': 'p6CCFkkoFA2BfijAB'}]",269759,,43,spr-buttons,selection,[],
807,the one true condition,,,,,,,,,0.0-3.0-1.20,,[],,,,,270667,,44,spr-buttons,feedback,[],
807,the one true condition,6062,6_rotate_6,True,G,,,,cLaK88862bv7MHMuQ,0.0-3.0-0.21,3,[],G,,,"[{'role': 'speaker', 'text': 'square head to the left of body barely attached', 'playerId': 'gd4Mbi8awyKfZgvka'}]",276735,,45,spr-buttons,selection,[],
807,the one true condition,,,,,,,,,0.0-3.0-1.21,,[],,,,,277642,,46,spr-buttons,feedback,[],
807,the one true condition,7589,2_rotate_6,False,B,,,,79swBZFsJnrQuHvhd,0.0-3.0-0.22,1,[],C,,,"[{'role': 'speaker', 'text': 'man with arms outstretched, right arm broken', 'playerId': 'b6WTJQoLvhx9dhQWk'}]",285239,,47,spr-buttons,selection,[],
807,the one true condition,,,,,,,,,0.0-3.0-1.22,,[],,,,,286146,,48,spr-buttons,feedback,[],
807,the one true condition,4188,2_rotate_1,True,C,,,,52Z92z3wj7TxhCe3X,0.0-3.0-0.23,1,[],C,,,"[{'role': 'speaker', 'text': ""Shoulders up - sort of like 'why me ' - box head is further to the left"", 'playerId': 'YjxxewuyohjoySxSn'}]",290342,,49,spr-buttons,selection,[],
807,the one true condition,,,,,,,,,0.0-3.0-1.23,,[],,,,,291248,,50,spr-buttons,feedback,[],
807,the one true condition,1951,6_rotate_6,True,E,,,,nySo3NiJX7Kres7zm,0.0-3.0-0.24,6,[],E,,,"[{'role': 'speaker', 'text': 'Bunny man!', 'playerId': 'ugNcH6z9oWCzD3uHh'}]",293207,,51,spr-buttons,selection,[],
807,the one true condition,,,,,,,,,0.0-3.0-1.24,,[],,,,,294116,,52,spr-buttons,feedback,[],
807,the one true condition,2068,2_rotate_1,True,C,,,,Ja6HX8DgvFAspRAYm,0.0-3.0-0.25,1,[],C,,,"[{'role': 'speaker', 'text': 'Someone leaning to the left with their arms up high', 'playerId': 'QnqvYmzn62jtaac7w'}]",296192,,53,spr-buttons,selection,[],
807,the one true condition,,,,,,,,,0.0-3.0-1.25,,[],,,,,297099,,54,spr-buttons,feedback,[],
807,the one true condition,4283,2_rotate_6,True,J,,,,GpF4Ge9YCd7ih3DFr,0.0-3.0-0.26,9,[],J,,,"[{'role': 'speaker', 'text': 'flat bottom, flat left hand side', 'playerId': '9DEoh9BWkZFYxhECs'}]",301384,,55,spr-buttons,selection,[],
807,the one true condition,,,,,,,,,0.0-3.0-1.26,,[],,,,,302292,,56,spr-buttons,feedback,[],
807,the one true condition,13284,6_rotate_1,True,D,,,,7i3mnwWykEA95fvyk,0.0-3.0-0.27,2,[],D,,,"[{'role': 'speaker', 'text': 'holding object out to left', 'playerId': 'zKzojrwHz2R6wEi3M'}, {'role': 'listener', 'text': 'like a basket', 'playerId': '6bYzncKaESZG3XQY3'}, {'role': 'speaker', 'text': 'left foot pointing out to left', 'playerId': 'zKzojrwHz2R6wEi3M'}, {'role': 'speaker', 'text': 'basket yes', 'playerId': 'zKzojrwHz2R6wEi3M'}, {'role': 'listener', 'text': 'triangle on the back', 'playerId': 'xMcZMZoajc3znxvFH'}, {'role': 'listener', 'text': 'left foot in the air', 'playerId': 'HPXeHqtHCBw7Cg7WX'}, {'role': 'speaker', 'text': 'no feet in the air', 'playerId': 'zKzojrwHz2R6wEi3M'}, {'role': 'speaker', 'text': 'person just standing', 'playerId': 'zKzojrwHz2R6wEi3M'}, {'role': 'speaker', 'text': 'bottom corner right angle', 'playerId': 'zKzojrwHz2R6wEi3M'}, {'role': 'speaker', 'text': 'right corner', 'playerId': 'zKzojrwHz2R6wEi3M'}]",315584,,57,spr-buttons,selection,[],
807,the one true condition,,,,,,,,,0.0-3.0-1.27,,[],,,,,316489,,58,spr-buttons,feedback,[],
807,the one true condition,3615,2_rotate_1,False,L,,,,CNET4E5tvYW37ZevE,0.0-3.0-0.28,11,[],K,,,"[{'role': 'speaker', 'text': 'looks like a person bending their knees and facing right with arms out in front of them', 'playerId': 'oNe96ojnutpRrwiFb'}]",320112,,59,spr-buttons,selection,[],
807,the one true condition,,,,,,,,,0.0-3.0-1.28,,[],,,,,321018,,60,spr-buttons,feedback,[],
807,the one true condition,6495,2_rotate_1,True,G,,,,8a3bQ2zrC7JzYqEJ6,0.0-3.0-0.29,3,[],G,,,"[{'role': 'speaker', 'text': 'The small triangle is on the bottom right of the picture and appears to be free-floating', 'playerId': 'QG9QyuRkmCKFr7dCn'}, {'role': 'listener', 'text': ""does the square look like it's free floating also on the left side"", 'playerId': 'yH7KZ9hMajzHzMKGm'}, {'role': 'listener', 'text': 'are the square or the triangle connected', 'playerId': 'yH7KZ9hMajzHzMKGm'}, {'role': 'listener', 'text': 'like touching directly', 'playerId': 'yH7KZ9hMajzHzMKGm'}, {'role': 'speaker', 'text': 'Just one corner of each shape', 'playerId': 'QG9QyuRkmCKFr7dCn'}]",327519,,61,spr-buttons,selection,[],
807,the one true condition,,,,,,,,,0.0-3.0-1.29,,[],,,,,328427,,62,spr-buttons,feedback,[],
807,the one true condition,2512,2_rotate_1,True,A,,,,pR4tb8CtSgCLLcMQY,0.0-3.0-0.30,10,[],A,,,"[{'role': 'speaker', 'text': 'a man lifting one foot', 'playerId': 'jMYJS2ANLmjazynqc'}, {'role': 'speaker', 'text': 'in front of him', 'playerId': 'jMYJS2ANLmjazynqc'}]",330946,,63,spr-buttons,selection,[],
807,the one true condition,,,,,,,,,0.0-3.0-1.30,,[],,,,,331852,,64,spr-buttons,feedback,[],
807,the one true condition,10332,2_rotate_1,True,J,,,,pAtG6vt3AyaJypa2j,0.0-3.0-0.31,9,[],J,,,"[{'role': 'speaker', 'text': 'The diamond head is pointing straight upward', 'playerId': '3D7MbrSZL62xJBhib'}, {'role': 'speaker', 'text': 'The body is like a large thick wide body this time', 'playerId': '3D7MbrSZL62xJBhib'}, {'role': 'speaker', 'text': 'The top right of the body has a small triangle with the tip of the triangle pointing to the right', 'playerId': '3D7MbrSZL62xJBhib'}, {'role': 'speaker', 'text': 'The bottom right has a triangle cut out of it', 'playerId': '3D7MbrSZL62xJBhib'}, {'role': 'speaker', 'text': 'And the then very bottom has a triangle flat against the floor with the right tip of the triangle pointing to the right', 'playerId': '3D7MbrSZL62xJBhib'}, {'role': 'listener', 'text': 'is the left part straight', 'playerId': 'kNihCF3o2LNDkwQs5'}]",342190,,65,spr-buttons,selection,[],
807,the one true condition,,,,,,,,,0.0-3.0-1.31,,[],,,,,343097,,66,spr-buttons,feedback,[],
807,the one true condition,7974,6_rotate_1,False,F,,,,7i3mnwWykEA95fvyk,0.0-3.0-0.32,6,[],E,,,"[{'role': 'speaker', 'text': 'sitting down', 'playerId': 'zKzojrwHz2R6wEi3M'}, {'role': 'speaker', 'text': 'head forward', 'playerId': 'zKzojrwHz2R6wEi3M'}, {'role': 'speaker', 'text': 'sideways on', 'playerId': 'zKzojrwHz2R6wEi3M'}, {'role': 'speaker', 'text': 'only see one leg', 'playerId': 'zKzojrwHz2R6wEi3M'}]",351079,,67,spr-buttons,selection,[],
807,the one true condition,,,,,,,,,0.0-3.0-1.32,,[],,,,,351986,,68,spr-buttons,feedback,[],
807,the one true condition,3332,2_rotate_6,True,C,,,,pAtG6vt3AyaJypa2j,0.0-3.0-0.33,1,[],C,,,"[{'role': 'speaker', 'text': 'ghost', 'playerId': 'kNihCF3o2LNDkwQs5'}]",355327,,69,spr-buttons,selection,[],
807,the one true condition,,,,,,,,,0.0-3.0-1.33,,[],,,,,356234,,70,spr-buttons,feedback,[],
807,the one true condition,18152,6_rotate_1,True,L,,,,aFykNpfLr9BqKdsFL,0.0-3.0-0.34,5,[],L,,,"[{'role': 'speaker', 'text': 'a person praying with their knees bent slightly', 'playerId': 'qioaDCfDaa28TFEA8'}, {'role': 'speaker', 'text': 'facing the right side', 'playerId': 'qioaDCfDaa28TFEA8'}, {'role': 'listener', 'text': 'With pointy tail', 'playerId': 'PGAtCk8Ks2aJygddG'}, {'role': 'speaker', 'text': 'and a straight back', 'playerId': 'qioaDCfDaa28TFEA8'}, {'role': 'listener', 'text': 'triangle sticking out their back', 'playerId': 'PXh3QTj6cPCJnZWk5'}, {'role': 'speaker', 'text': 'no pointy tail the other one', 'playerId': 'qioaDCfDaa28TFEA8'}, {'role': 'listener', 'text': 'arms facing to the right', 'playerId': 'dq4SeJvQf8z6NSWHE'}]",374391,,71,spr-buttons,selection,[],
807,the one true condition,,,,,,,,,0.0-3.0-1.34,,[],,,,,375299,,72,spr-buttons,feedback,[],
807,the one true condition,7326,6_rotate_1,True,B,,,,cLaK88862bv7MHMuQ,0.0-3.0-0.35,7,[],B,,,"[{'role': 'speaker', 'text': 'Looks like someone kneeling on the floor', 'playerId': 'XgpZ3ySCe7xA9xome'}, {'role': 'speaker', 'text': 'triangle arm on right not attached to body', 'playerId': 'XgpZ3ySCe7xA9xome'}, {'role': 'speaker', 'text': 'Other arm attached on left-hand side', 'playerId': 'XgpZ3ySCe7xA9xome'}, {'role': 'speaker', 'text': 'Small triangle foot on left-hand side', 'playerId': 'XgpZ3ySCe7xA9xome'}, {'role': 'speaker', 'text': 'Flat bottom, with indent on the left-hand side', 'playerId': 'XgpZ3ySCe7xA9xome'}, {'role': 'speaker', 'text': 'Head in-between the two arms', 'playerId': 'XgpZ3ySCe7xA9xome'}]",382632,,73,spr-buttons,selection,[],
807,the one true condition,,,,,,,,,0.0-3.0-1.35,,[],,,,,383540,,74,spr-buttons,feedback,[],
807,the one true condition,2851,2_rotate_6,True,C,,,,52Z92z3wj7TxhCe3X,0.0-3.0-0.36,1,[],C,,,"[{'role': 'speaker', 'text': 'why me', 'playerId': 'jDNNo5YT7r2NRqawS'}]",386399,,75,spr-buttons,selection,[],
807,the one true condition,,,,,,,,,0.0-3.0-1.36,,[],,,,,387310,,76,spr-buttons,feedback,[],
807,the one true condition,33394,6_rotate_1,False,A,,,,4eigY5GthWZfxug8D,0.0-3.0-0.37,0,[],I,,,"[{'role': 'speaker', 'text': ""he's doing that like spooky ghost pose"", 'playerId': 'W2FcmbCnXZFmMLy9v'}, {'role': 'speaker', 'text': 'both arms are together points to the left', 'playerId': 'W2FcmbCnXZFmMLy9v'}, {'role': 'speaker', 'text': 'like elbows high', 'playerId': 'W2FcmbCnXZFmMLy9v'}, {'role': 'speaker', 'text': 'hands down', 'playerId': 'W2FcmbCnXZFmMLy9v'}, {'role': 'speaker', 'text': 'one leg is flat on the floor', 'playerId': 'W2FcmbCnXZFmMLy9v'}, {'role': 'speaker', 'text': 'the other leg is raised to the right', 'playerId': 'W2FcmbCnXZFmMLy9v'}, {'role': 'speaker', 'text': 'in a straight line', 'playerId': 'W2FcmbCnXZFmMLy9v'}, {'role': 'speaker', 'text': 'his head is a square', 'playerId': 'W2FcmbCnXZFmMLy9v'}, {'role': 'listener', 'text': 'more like a zombie pose', 'playerId': 'T8RuPGkjXkXWtsHrf'}, {'role': 'speaker', 'text': 'but as if he looking backwards', 'playerId': 'W2FcmbCnXZFmMLy9v'}, {'role': 'speaker', 'text': 'Strong zombie vibes', 'playerId': 'W2FcmbCnXZFmMLy9v'}, {'role': 'listener', 'text': ""does he look like he's doing a dance on one leg"", 'playerId': 'T8RuPGkjXkXWtsHrf'}, {'role': 'listener', 'text': 'straight up doing the MJ dance', 'playerId': '9b8gwadnyYhRSdEC7'}, {'role': 'listener', 'text': 'big michael jackson thriller vibes', 'playerId': 'T8RuPGkjXkXWtsHrf'}]",420712,,77,spr-buttons,selection,[],
807,the one true condition,,,,,,,,,0.0-3.0-1.37,,[],,,,,421622,,78,spr-buttons,feedback,[],
807,the one true condition,5050,2_rotate_1,True,L,,,,Ja6HX8DgvFAspRAYm,0.0-3.0-0.38,5,[],L,,,"[{'role': 'speaker', 'text': 'It looks like someone slightly bending at the knees And their arms pointed forward but with the elbows close to the body (i e their arms are not completely straight forward)', 'playerId': 'QnqvYmzn62jtaac7w'}]",426679,,79,spr-buttons,selection,[],
807,the one true condition,,,,,,,,,0.0-3.0-1.38,,[],,,,,427587,,80,spr-buttons,feedback,[],
807,the one true condition,10046,6_rotate_6,False,G,,,,znSiJdhs7sWk5xhgA,0.0-3.0-0.39,0,[],I,,,"[{'role': 'speaker', 'text': 'graceful pose', 'playerId': '4fTnjYS9Cge7Tv7ou'}, {'role': 'speaker', 'text': '""italy""', 'playerId': '4fTnjYS9Cge7Tv7ou'}]",437640,,81,spr-buttons,selection,[],
807,the one true condition,,,,,,,,,0.0-3.0-1.39,,[],,,,,438545,,82,spr-buttons,feedback,[],
807,the one true condition,6495,6_rotate_6,True,A,,,,qzNuN6yp4HDWzko6T,0.0-3.0-0.40,10,[],A,,,"[{'role': 'speaker', 'text': 'Sleepwalking to left with square on upper back', 'playerId': 'raCR7oL7mP22ToCrY'}]",445048,,83,spr-buttons,selection,[],
807,the one true condition,,,,,,,,,0.0-3.0-1.40,,[],,,,,445955,,84,spr-buttons,feedback,[],
807,the one true condition,14348,6_rotate_1,True,K,,,,cLaK88862bv7MHMuQ,0.0-3.0-0.41,11,[],K,,,"[{'role': 'speaker', 'text': 'Triangle pointing out to the right-hand side in the middle of the picture and bottom of the picture', 'playerId': 'XgpZ3ySCe7xA9xome'}, {'role': 'speaker', 'text': 'Head looks like it is stacked on another diamond', 'playerId': 'XgpZ3ySCe7xA9xome'}, {'role': 'speaker', 'text': 'Small triangle tail in bottom left-hand side of picture', 'playerId': 'XgpZ3ySCe7xA9xome'}, {'role': 'listener', 'text': 'weird jutting out bit on the left', 'playerId': 't6bNGAY6XY3kmqjAC'}, {'role': 'speaker', 'text': 'Two jutting out bits, one in bottom left, one to the left of shoulders slightly above it', 'playerId': 'XgpZ3ySCe7xA9xome'}, {'role': 'speaker', 'text': 'Two bits jutting out to right', 'playerId': 'XgpZ3ySCe7xA9xome'}]",460311,,85,spr-buttons,selection,[],
807,the one true condition,,,,,,,,,0.0-3.0-1.41,,[],,,,,461219,,86,spr-buttons,feedback,[],
807,the one true condition,17005,6_rotate_6,False,F,,,,k4otZKu35xehtF93F,0.0-3.0-0.42,7,[],B,,,"[{'role': 'speaker', 'text': 'person sitting, facing left, wall on right,no arms, legs bent', 'playerId': 'ybQ6avjhBa46uuw8Z'}, {'role': 'listener', 'text': 'Wearing the cape coat, head down', 'playerId': 'Sb5t7YLhHirE7JfNH'}]",478232,,87,spr-buttons,selection,[],
807,the one true condition,,,,,,,,,0.0-3.0-1.42,,[],,,,,479139,,88,spr-buttons,feedback,[],
807,the one true condition,7085,6_rotate_6,False,L,,,,yPMhLu9xFgbC5dWLY,0.0-3.0-0.43,7,[],B,,,"[{'role': 'speaker', 'text': 'knees bent, facing right looks like bowler', 'playerId': 'awLY4XCudoFs3HNWo'}, {'role': 'speaker', 'text': 'still standing', 'playerId': 'awLY4XCudoFs3HNWo'}, {'role': 'speaker', 'text': 'standing', 'playerId': 'awLY4XCudoFs3HNWo'}]",486231,,89,spr-buttons,selection,[],
807,the one true condition,,,,,,,,,0.0-3.0-1.43,,[],,,,,487142,,90,spr-buttons,feedback,[],
807,the one true condition,5123,6_rotate_6,False,B,,,,k4otZKu35xehtF93F,0.0-3.0-0.44,0,[],I,,,"[{'role': 'speaker', 'text': 'one of the two weird shapes, this one has triangle-square-triangle on top', 'playerId': 'ybQ6avjhBa46uuw8Z'}, {'role': 'listener', 'text': 'Chicken wings', 'playerId': 'Sb5t7YLhHirE7JfNH'}]",492272,,91,spr-buttons,selection,[],
807,the one true condition,,,,,,,,,0.0-3.0-1.44,,[],,,,,493179,,92,spr-buttons,feedback,[],
807,the one true condition,6470,2_rotate_1,True,D,,,,pAtG6vt3AyaJypa2j,0.0-3.0-0.45,2,[],D,,,"[{'role': 'speaker', 'text': 'It stands completely upright', 'playerId': '3D7MbrSZL62xJBhib'}, {'role': 'speaker', 'text': 'The right side is completely straight', 'playerId': '3D7MbrSZL62xJBhib'}, {'role': 'listener', 'text': 'is there a small triangle on the bottom left part', 'playerId': 'kNihCF3o2LNDkwQs5'}, {'role': 'speaker', 'text': ""Yes it's connected to the main body, not a separate triangle though"", 'playerId': '3D7MbrSZL62xJBhib'}, {'role': 'speaker', 'text': 'So the head is a diamond, pointing straight up', 'playerId': '3D7MbrSZL62xJBhib'}]",499655,,93,spr-buttons,selection,[],
807,the one true condition,,,,,,,,,0.0-3.0-1.45,,[],,,,,500562,,94,spr-buttons,feedback,[],
807,the one true condition,5095,6_rotate_6,True,J,,,,fvaDCsGFedLr7w3Ra,0.0-3.0-0.46,9,[],J,,,"[{'role': 'speaker', 'text': 'Flat left side and bottom Diamond head', 'playerId': 'stM5e2BZETS3QRqbF'}, {'role': 'speaker', 'text': 'pointing right', 'playerId': 'stM5e2BZETS3QRqbF'}]",505663,,95,spr-buttons,selection,[],
807,the one true condition,,,,,,,,,0.0-3.0-1.46,,[],,,,,506575,,96,spr-buttons,feedback,[],
807,the one true condition,2769,2_rotate_6,True,C,,,,2928FF7GcrkeFiDkh,0.0-3.0-0.47,1,[],C,,,"[{'role': 'speaker', 'text': 'leaning left Y arms', 'playerId': '5L7PZWTLhnYMGQE8b'}]",509352,,97,spr-buttons,selection,[],
807,the one true condition,,,,,,,,,0.0-3.0-1.47,,[],,,,,510259,,98,spr-buttons,feedback,[],
807,the one true condition,3253,6_rotate_6,True,A,,,,nySo3NiJX7Kres7zm,0.0-3.0-0.48,10,[],A,,,"[{'role': 'speaker', 'text': 'Zombie man', 'playerId': 'ugNcH6z9oWCzD3uHh'}]",513519,,99,spr-buttons,selection,[],
807,the one true condition,,,,,,,,,0.0-3.0-1.48,,[],,,,,514426,,100,spr-buttons,feedback,[],
807,the one true condition,17542,6_rotate_1,True,J,,,,57QkWqXASdPMDFRmA,0.0-3.0-0.49,9,[],J,,,"[{'role': 'speaker', 'text': 'body is a square with a bite taken from it on the right', 'playerId': 'foLY9seHz9WKw4HPk'}, {'role': 'speaker', 'text': 'diamond head', 'playerId': 'foLY9seHz9WKw4HPk'}, {'role': 'speaker', 'text': 'bottom of the bite could look like feet', 'playerId': 'foLY9seHz9WKw4HPk'}, {'role': 'listener', 'text': 'triangle pointing right', 'playerId': 'eXYo8Pa5AjP8RZ5ED'}, {'role': 'listener', 'text': 'bite out of bottom right', 'playerId': 'PhukZyyqKFDxhsjYv'}, {'role': 'listener', 'text': 'arm is out to his right', 'playerId': '4G9hab5MLzr3hzwbK'}, {'role': 'speaker', 'text': 'yes to the right', 'playerId': 'foLY9seHz9WKw4HPk'}, {'role': 'listener', 'text': 'square left shoulder', 'playerId': 'PhukZyyqKFDxhsjYv'}, {'role': 'speaker', 'text': 'more of the bite is on the bottom', 'playerId': 'foLY9seHz9WKw4HPk'}, {'role': 'speaker', 'text': 'yes whole left side is a square', 'playerId': 'foLY9seHz9WKw4HPk'}]",531974,,101,spr-buttons,selection,[],
807,the one true condition,,,,,,,,,0.0-3.0-1.49,,[],,,,,532882,,102,spr-buttons,feedback,[],
807,the one true condition,1479,2_rotate_6,True,C,,,,GpF4Ge9YCd7ih3DFr,0.0-3.0-0.50,1,[],C,,,"[{'role': 'speaker', 'text': 'flying ghost', 'playerId': '9DEoh9BWkZFYxhECs'}]",534367,,103,spr-buttons,selection,[],
807,the one true condition,,,,,,,,,0.0-3.0-1.50,,[],,,,,535275,,104,spr-buttons,feedback,[],
807,the one true condition,4723,2_rotate_6,True,G,,,,FfK5QXXSw833vwHKX,0.0-3.0-0.51,3,[],G,,,"[{'role': 'speaker', 'text': 'high heel', 'playerId': 'psDWD9d3xQGdFFP7Q'}]",539999,,105,spr-buttons,selection,[],
807,the one true condition,,,,,,,,,0.0-3.0-1.51,,[],,,,,540908,,106,spr-buttons,feedback,[],
807,the one true condition,2077,2_rotate_6,True,L,,,,gjooqsuf2CPN5AWxi,0.0-3.0-0.52,5,[],L,,,"[{'role': 'speaker', 'text': 'zig zag legs', 'playerId': 'SzYY9C53Ne7cMaPHC'}]",542993,,107,spr-buttons,selection,[],
807,the one true condition,,,,,,,,,0.0-3.0-1.52,,[],,,,,543906,,108,spr-buttons,feedback,[],
807,the one true condition,13467,6_rotate_1,True,J,,,,aFykNpfLr9BqKdsFL,0.0-3.0-0.53,9,[],J,,,"[{'role': 'speaker', 'text': 'looks like the previous cocoon one', 'playerId': 'qioaDCfDaa28TFEA8'}, {'role': 'speaker', 'text': 'no arms or legs', 'playerId': 'qioaDCfDaa28TFEA8'}, {'role': 'listener', 'text': 'very straight back', 'playerId': 'PXh3QTj6cPCJnZWk5'}, {'role': 'listener', 'text': 'Facing right or left', 'playerId': 'PGAtCk8Ks2aJygddG'}, {'role': 'listener', 'text': ""Is it the same one we've guessed before"", 'playerId': 'AgmYL5Hz3XEdjkPcg'}, {'role': 'listener', 'text': 'one we have had before', 'playerId': 'NWj66Bd2kapty9H9h'}, {'role': 'speaker', 'text': 'very straight back', 'playerId': 'qioaDCfDaa28TFEA8'}, {'role': 'speaker', 'text': 'not the same one as before', 'playerId': 'qioaDCfDaa28TFEA8'}, {'role': 'speaker', 'text': 'back is straight', 'playerId': 'qioaDCfDaa28TFEA8'}, {'role': 'listener', 'text': 'arms facing right near the head', 'playerId': 'dq4SeJvQf8z6NSWHE'}, {'role': 'speaker', 'text': 'facing the right', 'playerId': 'qioaDCfDaa28TFEA8'}, {'role': 'listener', 'text': ""sucks you can't make a change once you have clicked"", 'playerId': 'NWj66Bd2kapty9H9h'}, {'role': 'listener', 'text': 'has it got a pointing arm straight', 'playerId': 'PGAtCk8Ks2aJygddG'}, {'role': 'listener', 'text': 'facing rightwards', 'playerId': 'PGAtCk8Ks2aJygddG'}, {'role': 'speaker', 'text': 'the body looks light a boot', 'playerId': 'qioaDCfDaa28TFEA8'}]",557374,,109,spr-buttons,selection,[],
807,the one true condition,,,,,,,,,0.0-3.0-1.53,,[],,,,,558281,,110,spr-buttons,feedback,[],
807,the one true condition,1736,2_rotate_6,True,I,,,,hu2zy5uGrN4qJ7qqe,0.0-3.0-0.54,0,[],I,,,"[{'role': 'speaker', 'text': 'ice skater', 'playerId': 'p7qxLz4WrSqvxaYy3'}]",560023,,111,spr-buttons,selection,[],
807,the one true condition,,,,,,,,,0.0-3.0-1.54,,[],,,,,560931,,112,spr-buttons,feedback,[],
807,the one true condition,4523,6_rotate_1,True,C,,,,4eigY5GthWZfxug8D,0.0-3.0-0.55,1,[],C,,,"[{'role': 'speaker', 'text': 'oh snap', 'playerId': 'W2FcmbCnXZFmMLy9v'}, {'role': 'speaker', 'text': ""looks like he's mid flight"", 'playerId': 'W2FcmbCnXZFmMLy9v'}, {'role': 'speaker', 'text': ""he's flailing his arms"", 'playerId': 'W2FcmbCnXZFmMLy9v'}, {'role': 'speaker', 'text': 'no legs', 'playerId': 'W2FcmbCnXZFmMLy9v'}, {'role': 'listener', 'text': 'evil scientist guy', 'playerId': 'T8RuPGkjXkXWtsHrf'}, {'role': 'listener', 'text': 'looks like he bout to face plant', 'playerId': '9b8gwadnyYhRSdEC7'}, {'role': 'listener', 'text': 'laughing evil scientist', 'playerId': 'T8RuPGkjXkXWtsHrf'}, {'role': 'speaker', 'text': ""He's gonna faceplant"", 'playerId': 'W2FcmbCnXZFmMLy9v'}, {'role': 'speaker', 'text': 'long boi', 'playerId': 'W2FcmbCnXZFmMLy9v'}, {'role': 'listener', 'text': 'does his body tilt right', 'playerId': 'T8RuPGkjXkXWtsHrf'}, {'role': 'speaker', 'text': 'two arms, a head and a body', 'playerId': 'W2FcmbCnXZFmMLy9v'}, {'role': 'listener', 'text': 'are his arms in the air', 'playerId': 'T8RuPGkjXkXWtsHrf'}, {'role': 'speaker', 'text': 'arms in the air yeah', 'playerId': 'W2FcmbCnXZFmMLy9v'}]",565455,,113,spr-buttons,selection,[],
807,the one true condition,,,,,,,,,0.0-3.0-1.55,,[],,,,,566362,,114,spr-buttons,feedback,[],
807,the one true condition,2038,6_rotate_6,False,J,,,,nySo3NiJX7Kres7zm,0.0-3.0-0.56,2,[],D,,,"[{'role': 'speaker', 'text': 'Candle man', 'playerId': 'ugNcH6z9oWCzD3uHh'}]",568406,,115,spr-buttons,selection,[],
807,the one true condition,,,,,,,,,0.0-3.0-1.56,,[],,,,,569317,,116,spr-buttons,feedback,[],
807,the one true condition,4624,2_rotate_1,True,C,,,,BLSAokwRgraiCPo9R,0.0-3.0-0.57,1,[],C,,,"[{'role': 'speaker', 'text': ""leaning back with the arms out like they're falling"", 'playerId': 'fEZ4SiL7SCcPWuGZi'}, {'role': 'speaker', 'text': 'no feet', 'playerId': 'fEZ4SiL7SCcPWuGZi'}, {'role': 'listener', 'text': 'leaning towards left', 'playerId': 'yeGgqdipRGXtPNcpu'}]",573942,,117,spr-buttons,selection,[],
807,the one true condition,,,,,,,,,0.0-3.0-1.57,,[],,,,,574849,,118,spr-buttons,feedback,[],
807,the one true condition,3240,6_rotate_6,True,F,,,,fvaDCsGFedLr7w3Ra,0.0-3.0-0.58,8,[],F,,,"[{'role': 'speaker', 'text': 'Sitting facing left looking sad', 'playerId': 'stM5e2BZETS3QRqbF'}]",578095,,119,spr-buttons,selection,[],
807,the one true condition,,,,,,,,,0.0-3.0-1.58,,[],,,,,579005,,120,spr-buttons,feedback,[],
807,the one true condition,2789,2_rotate_1,True,C,,,,YyAyuHf7S76wsbCA6,0.0-3.0-0.59,1,[],C,,,"[{'role': 'speaker', 'text': 'figure flying', 'playerId': 'fAMhn4Ein8YivGti7'}, {'role': 'speaker', 'text': 'like ghost', 'playerId': 'fAMhn4Ein8YivGti7'}, {'role': 'speaker', 'text': 'triangle', 'playerId': 'fAMhn4Ein8YivGti7'}, {'role': 'speaker', 'text': 'head', 'playerId': 'fAMhn4Ein8YivGti7'}, {'role': 'listener', 'text': ""Hands arms up, like he's praising God or something"", 'playerId': '7R6jKabotwJFLSyNW'}]",581800,,121,spr-buttons,selection,[],
807,the one true condition,,,,,,,,,0.0-3.0-1.59,,[],,,,,582706,,122,spr-buttons,feedback,[],
807,the one true condition,,,,,,,,,0.0-4.0,"{'other': '', 'errors': 'none', 'length': 'This was fun, I would have been happy to do more', 'interface': 'all fine for me', 'understand': 'yes very clear'}",31501,,,,,614222,,123,survey-text,,,
807,the one true condition,,,,,,,,,0.0-5.0,0,3561,,"<h2>Many thanks for participating!</h2><p>We are generally interested in how people form conventions, such as shared 'nicknames' for images. Here, we are studying when these shared 'nicknames' are understandable to people who were not part of the group that created the nickname.</p><h1>Press continue to be redirected to Prolific. </h1>",,,617784,,124,html-button-response,,,
806,the one true condition,,,,,[],[],[],,0.0-0.0,,,,,True,,675,False,0,preload,,,
806,the one true condition,,,,,,,,,0.0-1.0,0,9146,," <center><img width=""300px"" src=""assets/stanford.png"" /></center><div id=""legal""></br>By answering the following questions, you are participating in a study being performed by cognitive scientists in the Stanford Department of Psychology. If you have questions about this research, please contact us at  <a href=""mailto://languagecoglab@gmail.com.""> languagecoglab@gmail.com</a>.You must be at least 18 years old to participate. Your participation in this research is voluntary. You may decline to answer any or all of the following questions. You may decline further participation, at any time, without adverse consequences. Your anonymity is assured; the researchers who have requested your participation will not receive any personal information about you. </div></br>",,,9821,,1,html-button-response,,,
806,the one true condition,,,,,,,,,0.0-2.0,0,43548,,"<h3>Please read these instructions carefully!</h3> </br><div id=""intro""> <p>In this task, you will see a <b>transcript of a conversation</b> some previous participants had where a <b>speaker identified one of the images to some listeners</b>.</p></br><center><img width=""600px"" src=""assets/demo.png"" /></center></br><p>Your goal is to <b>read the transcript</b> and <b>figure out which image</b> is being described! </p><p>You will <b>click the image</b> you think is being described, and then you will <b>find out if you were right</b>.<p><p>You will see <b>60 trials</b>. The image choices will stay the same, but the transcripts will come from different groups of people. Some of the transcripts may be much shorter or longer than others. Some of the descriptions may be hard to understand -- just take a guess if you are not sure.</p><p>You will get a bonus of <b>5 cents</b> for each image you get right! </p><p> <b>Note:</b> These descriptions came from real people and may contain inappropriate or offensive language. If you find a description inappropriate, please let us know via Prolific message or in the exit survey, so we can filter it out in the future.</p>",,,53370,,2,html-button-response,,,
806,the one true condition,27640,2_rotate_1,True,D,,,,hu2zy5uGrN4qJ7qqe,0.0-3.0-0.0,3,[],D,,,"[{'role': 'speaker', 'text': 'this guy is standing up straight but it looks like he is facing sideways with his arms out straight', 'playerId': 'xwCpnpj4eoCiFYeCE'}, {'role': 'speaker', 'text': ""it also looks like he's wearing a cloak"", 'playerId': 'xwCpnpj4eoCiFYeCE'}, {'role': 'listener', 'text': ""does it look like he's facing to the right or left"", 'playerId': 'p7qxLz4WrSqvxaYy3'}, {'role': 'speaker', 'text': 'he is facing the left', 'playerId': 'xwCpnpj4eoCiFYeCE'}]",81011,,3,spr-buttons,selection,[],
806,the one true condition,,,,,,,,,0.0-3.0-1.0,,[],,,,,81921,,4,spr-buttons,feedback,[],
806,the one true condition,2795,2_rotate_6,True,C,,,,of4gY8Bu37PbmkPee,0.0-3.0-0.1,6,[],C,,,"[{'role': 'speaker', 'text': 'flying man', 'playerId': '7NrLvX7rfwB2y54ZF'}]",84716,,5,spr-buttons,selection,[],
806,the one true condition,,,,,,,,,0.0-3.0-1.1,,[],,,,,85624,,6,spr-buttons,feedback,[],
806,the one true condition,23094,6_rotate_6,False,H,,,,yPMhLu9xFgbC5dWLY,0.0-3.0-0.2,1,[],G,,,"[{'role': 'speaker', 'text': '""i"" guy or reverse j', 'playerId': 'awLY4XCudoFs3HNWo'}]",108720,,7,spr-buttons,selection,[],
806,the one true condition,,,,,,,,,0.0-3.0-1.2,,[],,,,,109623,,8,spr-buttons,feedback,[],
806,the one true condition,13273,6_rotate_1,True,C,,,,6bkpQbsv6wvHWczvB,0.0-3.0-0.3,6,[],C,,,"[{'role': 'speaker', 'text': 'this one looks like someone is falling', 'playerId': 'pNzsWQrabqXgTRTpu'}, {'role': 'speaker', 'text': 'or swimming', 'playerId': 'pNzsWQrabqXgTRTpu'}, {'role': 'listener', 'text': 'falling back', 'playerId': '5LJfKFwCaZ5exES48'}, {'role': 'listener', 'text': 'no legs', 'playerId': 'nBvdugvJzHQP7XcCx'}, {'role': 'listener', 'text': 'With the wacky arms', 'playerId': 'Chjp2rtMWxtmo8NPc'}, {'role': 'speaker', 'text': 'both arms are in the air', 'playerId': 'pNzsWQrabqXgTRTpu'}, {'role': 'speaker', 'text': 'no legs', 'playerId': 'pNzsWQrabqXgTRTpu'}]",122898,,9,spr-buttons,selection,[],
806,the one true condition,,,,,,,,,0.0-3.0-1.3,,[],,,,,123808,,10,spr-buttons,feedback,[],
806,the one true condition,3699,6_rotate_6,True,D,,,,YcwXqvuyhhCeZ3GSZ,0.0-3.0-0.4,3,[],D,,,"[{'role': 'speaker', 'text': 'priest with book', 'playerId': 't72k5QhnBy6LkmMFf'}]",127509,,11,spr-buttons,selection,[],
806,the one true condition,,,,,,,,,0.0-3.0-1.4,,[],,,,,128416,,12,spr-buttons,feedback,[],
806,the one true condition,12388,6_rotate_1,False,L,,,,yPMhLu9xFgbC5dWLY,0.0-3.0-0.5,2,[],K,,,"[{'role': 'speaker', 'text': 'this one is like a person facing right pointing right and they have their knees bend, but are still standing', 'playerId': '3HQ2FaXAPXevHQfsd'}]",140805,,13,spr-buttons,selection,[],
806,the one true condition,,,,,,,,,0.0-3.0-1.5,,[],,,,,141709,,14,spr-buttons,feedback,[],
806,the one true condition,4569,2_rotate_1,True,D,,,,8a3bQ2zrC7JzYqEJ6,0.0-3.0-0.6,3,[],D,,,"[{'role': 'speaker', 'text': 'This picture looks like a priest about to give a blessing They are facing left', 'playerId': 'QG9QyuRkmCKFr7dCn'}]",146280,,15,spr-buttons,selection,[],
806,the one true condition,,,,,,,,,0.0-3.0-1.6,,[],,,,,147196,,16,spr-buttons,feedback,[],
806,the one true condition,11589,2_rotate_1,False,K,,,,gjooqsuf2CPN5AWxi,0.0-3.0-0.7,11,[],B,,,"[{'role': 'speaker', 'text': 'someone kneeling and looking to the right, holding something out at chest height', 'playerId': 'tuNTPZ2dpnLz8EKgu'}, {'role': 'speaker', 'text': 'completely kneeling', 'playerId': 'tuNTPZ2dpnLz8EKgu'}, {'role': 'speaker', 'text': 'not a zig zag in the legs', 'playerId': 'tuNTPZ2dpnLz8EKgu'}]",158787,,17,spr-buttons,selection,[],
806,the one true condition,,,,,,,,,0.0-3.0-1.7,,[],,,,,159703,,18,spr-buttons,feedback,[],
806,the one true condition,3809,6_rotate_6,True,J,,,,qzNuN6yp4HDWzko6T,0.0-3.0-0.8,7,[],J,,,"[{'role': 'speaker', 'text': 'Penguin', 'playerId': 'raCR7oL7mP22ToCrY'}]",163514,,19,spr-buttons,selection,[],
806,the one true condition,,,,,,,,,0.0-3.0-1.8,,[],,,,,164430,,20,spr-buttons,feedback,[],
806,the one true condition,10869,6_rotate_6,True,H,,,,fvaDCsGFedLr7w3Ra,0.0-3.0-0.9,9,[],H,,,"[{'role': 'speaker', 'text': 'basic one No arms Diamond head', 'playerId': 'stM5e2BZETS3QRqbF'}, {'role': 'listener', 'text': 'they all have diamond heads my man', 'playerId': 'zz94KijdsPRR2hzey'}]",175301,,21,spr-buttons,selection,[],
806,the one true condition,,,,,,,,,0.0-3.0-1.9,,[],,,,,176218,,22,spr-buttons,feedback,[],
806,the one true condition,30036,6_rotate_6,False,B,,,,fvaDCsGFedLr7w3Ra,0.0-3.0-0.10,0,[],A,,,"[{'role': 'speaker', 'text': 'Looks like a mouse facing left with one diamond ear and one triangle Small triangle bottom left', 'playerId': 'stM5e2BZETS3QRqbF'}, {'role': 'speaker', 'text': 'the angel one', 'playerId': 'stM5e2BZETS3QRqbF'}]",206256,,23,spr-buttons,selection,[],
806,the one true condition,,,,,,,,,0.0-3.0-1.10,,[],,,,,207168,,24,spr-buttons,feedback,[],
806,the one true condition,12808,2_rotate_1,False,E,,,,BLSAokwRgraiCPo9R,0.0-3.0-0.11,8,[],F,,,"[{'role': 'speaker', 'text': 'sitting on the ground (back to the left) with bunny ears', 'playerId': 'fEZ4SiL7SCcPWuGZi'}, {'role': 'speaker', 'text': 'head angled down a bit', 'playerId': 'fEZ4SiL7SCcPWuGZi'}, {'role': 'listener', 'text': 'like windmill on top of head', 'playerId': 'yeGgqdipRGXtPNcpu'}]",219979,,25,spr-buttons,selection,[],
806,the one true condition,,,,,,,,,0.0-3.0-1.11,,[],,,,,220894,,26,spr-buttons,feedback,[],
806,the one true condition,9408,6_rotate_1,True,C,,,,qzNuN6yp4HDWzko6T,0.0-3.0-0.12,6,[],C,,,"[{'role': 'speaker', 'text': 'It looks like a goalkeeper diving for a ball', 'playerId': 'eAaeMJEcW8LDwgBSn'}, {'role': 'listener', 'text': 'Does he have legs or just arms', 'playerId': 'raCR7oL7mP22ToCrY'}, {'role': 'listener', 'text': '\\o', 'playerId': 'EoXqRaKYwsdCQXsvi'}]",230304,,27,spr-buttons,selection,[],
806,the one true condition,,,,,,,,,0.0-3.0-1.12,,[],,,,,231218,,28,spr-buttons,feedback,[],
806,the one true condition,5898,2_rotate_6,True,G,,,,52Z92z3wj7TxhCe3X,0.0-3.0-0.13,1,[],G,,,"[{'role': 'speaker', 'text': 'your seal, my dancer', 'playerId': 'jDNNo5YT7r2NRqawS'}]",237118,,29,spr-buttons,selection,[],
806,the one true condition,,,,,,,,,0.0-3.0-1.13,,[],,,,,238030,,30,spr-buttons,feedback,[],
806,the one true condition,20929,2_rotate_1,False,I,,,,79swBZFsJnrQuHvhd,0.0-3.0-0.14,2,[],K,,,"[{'role': 'speaker', 'text': 'man on one leg facing left with two chests sticking out, with a small triangle attached to his butt on the right', 'playerId': 'wQmTAXk3WXqT2b275'}]",258961,,31,spr-buttons,selection,[],
806,the one true condition,,,,,,,,,0.0-3.0-1.14,,[],,,,,259864,,32,spr-buttons,feedback,[],
806,the one true condition,9049,6_rotate_1,True,J,,,,6bkpQbsv6wvHWczvB,0.0-3.0-0.15,7,[],J,,,"[{'role': 'speaker', 'text': 'this one looks like a box with a head only their arms and feet would be sticking out of the box', 'playerId': 'pNzsWQrabqXgTRTpu'}, {'role': 'speaker', 'text': 'facing to the right of the screen', 'playerId': 'pNzsWQrabqXgTRTpu'}, {'role': 'speaker', 'text': 'with a pointed square head', 'playerId': 'pNzsWQrabqXgTRTpu'}, {'role': 'listener', 'text': 'Like the sleeping bag dude but flat at the top', 'playerId': 'Chjp2rtMWxtmo8NPc'}]",268915,,33,spr-buttons,selection,[],
806,the one true condition,,,,,,,,,0.0-3.0-1.15,,[],,,,,269833,,34,spr-buttons,feedback,[],
806,the one true condition,2869,6_rotate_6,False,G,,,,yPMhLu9xFgbC5dWLY,0.0-3.0-0.16,4,[],E,,,"[{'role': 'speaker', 'text': 'abstract one', 'playerId': 'awLY4XCudoFs3HNWo'}]",272704,,35,spr-buttons,selection,[],
806,the one true condition,,,,,,,,,0.0-3.0-1.16,,[],,,,,273610,,36,spr-buttons,feedback,[],
806,the one true condition,2193,6_rotate_1,True,I,,,,ppvQxmgBzQniJp9K3,0.0-3.0-0.17,10,[],I,,,"[{'role': 'speaker', 'text': 'ice skater lol', 'playerId': 'GK7qetdhhFYnmv9aj'}]",275803,,37,spr-buttons,selection,[],
806,the one true condition,,,,,,,,,0.0-3.0-1.17,,[],,,,,276721,,38,spr-buttons,feedback,[],
806,the one true condition,11678,2_rotate_1,True,J,,,,52Z92z3wj7TxhCe3X,0.0-3.0-0.18,7,[],J,,,"[{'role': 'speaker', 'text': 'Quite a box shaped body - pointy corner in the top right Box Head is straight in the middle, sort of looks like a diamond shape Cut out corner in the bottom right', 'playerId': 'YjxxewuyohjoySxSn'}]",288401,,39,spr-buttons,selection,[],
806,the one true condition,,,,,,,,,0.0-3.0-1.18,,[],,,,,289314,,40,spr-buttons,feedback,[],
806,the one true condition,5110,6_rotate_1,True,I,,,,ezwBLtARszSJvSzM6,0.0-3.0-0.19,10,[],I,,,"[{'role': 'speaker', 'text': 'One leg in air to the right', 'playerId': 'FmTqy959xZDgn7Cmo'}, {'role': 'listener', 'text': 'leaning over', 'playerId': 'WRvxri9zF6DrXgKET'}, {'role': 'listener', 'text': 'leg in air at 90 degrees', 'playerId': 'Yu2LsZeedD2nHmthZ'}]",294426,,41,spr-buttons,selection,[],
806,the one true condition,,,,,,,,,0.0-3.0-1.19,,[],,,,,295346,,42,spr-buttons,feedback,[],
806,the one true condition,3768,2_rotate_6,False,H,,,,of4gY8Bu37PbmkPee,0.0-3.0-0.20,7,[],J,,,"[{'role': 'speaker', 'text': 'no legs', 'playerId': '7NrLvX7rfwB2y54ZF'}, {'role': 'speaker', 'text': 'protrudes on right', 'playerId': '7NrLvX7rfwB2y54ZF'}]",299115,,43,spr-buttons,selection,[],
806,the one true condition,,,,,,,,,0.0-3.0-1.20,,[],,,,,300025,,44,spr-buttons,feedback,[],
806,the one true condition,4442,6_rotate_6,False,E,,,,cLaK88862bv7MHMuQ,0.0-3.0-0.21,1,[],G,,,"[{'role': 'speaker', 'text': 'bunny ears windmill', 'playerId': 'gd4Mbi8awyKfZgvka'}]",304469,,45,spr-buttons,selection,[],
806,the one true condition,,,,,,,,,0.0-3.0-1.21,,[],,,,,305375,,46,spr-buttons,feedback,[],
806,the one true condition,8498,6_rotate_6,True,H,,,,57QkWqXASdPMDFRmA,0.0-3.0-0.22,9,[],H,,,"[{'role': 'speaker', 'text': 'banana', 'playerId': 'G2cRaG8fekyPR6Msn'}, {'role': 'speaker', 'text': 'lower torso bends to right', 'playerId': 'G2cRaG8fekyPR6Msn'}]",313875,,47,spr-buttons,selection,[],
806,the one true condition,,,,,,,,,0.0-3.0-1.22,,[],,,,,314782,,48,spr-buttons,feedback,[],
806,the one true condition,5624,2_rotate_1,False,A,,,,3A9hhryuHHeDQhoGy,0.0-3.0-0.23,10,[],I,,,"[{'role': 'speaker', 'text': 'vertical right leg in air', 'playerId': 'CWk6Fmq7GL3ktEozG'}]",320409,,49,spr-buttons,selection,[],
806,the one true condition,,,,,,,,,0.0-3.0-1.23,,[],,,,,321314,,50,spr-buttons,feedback,[],
806,the one true condition,7210,2_rotate_1,False,H,,,,3A9hhryuHHeDQhoGy,0.0-3.0-0.24,11,[],B,,,"[{'role': 'speaker', 'text': 'sitting slightly bent to right', 'playerId': 'CWk6Fmq7GL3ktEozG'}]",328527,,51,spr-buttons,selection,[],
806,the one true condition,,,,,,,,,0.0-3.0-1.24,,[],,,,,329430,,52,spr-buttons,feedback,[],
806,the one true condition,3422,2_rotate_1,True,E,,,,dBAksjEwZCAZRyqJk,0.0-3.0-0.25,4,[],E,,,"[{'role': 'speaker', 'text': 'looks like bunny', 'playerId': 'g2sowCsDmoh28sbgq'}]",332854,,53,spr-buttons,selection,[],
806,the one true condition,,,,,,,,,0.0-3.0-1.25,,[],,,,,333772,,54,spr-buttons,feedback,[],
806,the one true condition,3189,2_rotate_1,True,F,,,,2Csg2Snzrpkud2YRi,0.0-3.0-0.26,8,[],F,,,"[{'role': 'speaker', 'text': 'this looks like a sad person sittting on his but', 'playerId': 'DugA5xyi4CvXJWvaC'}]",336963,,55,spr-buttons,selection,[],
806,the one true condition,,,,,,,,,0.0-3.0-1.26,,[],,,,,337876,,56,spr-buttons,feedback,[],
806,the one true condition,5491,2_rotate_6,True,L,,,,hu2zy5uGrN4qJ7qqe,0.0-3.0-0.27,5,[],L,,,"[{'role': 'speaker', 'text': 'facing right reading a book, bent legs', 'playerId': 'p7qxLz4WrSqvxaYy3'}]",343369,,57,spr-buttons,selection,[],
806,the one true condition,,,,,,,,,0.0-3.0-1.27,,[],,,,,344282,,58,spr-buttons,feedback,[],
806,the one true condition,7694,6_rotate_6,False,H,,,,CojwM8x8ZFDB9Y6HF,0.0-3.0-0.28,2,[],K,,,"[{'role': 'speaker', 'text': 'Bean', 'playerId': 'WJorh6puwn4WDQkk3'}, {'role': 'speaker', 'text': 'Triangle on bottom right side', 'playerId': 'WJorh6puwn4WDQkk3'}]",351978,,59,spr-buttons,selection,[],
806,the one true condition,,,,,,,,,0.0-3.0-1.28,,[],,,,,352890,,60,spr-buttons,feedback,[],
806,the one true condition,10049,2_rotate_6,False,A,,,,2928FF7GcrkeFiDkh,0.0-3.0-0.29,11,[],B,,,"[{'role': 'speaker', 'text': 'karate kid', 'playerId': '5L7PZWTLhnYMGQE8b'}]",362940,,61,spr-buttons,selection,[],
806,the one true condition,,,,,,,,,0.0-3.0-1.29,,[],,,,,363853,,62,spr-buttons,feedback,[],
806,the one true condition,7322,2_rotate_6,True,F,,,,pR4tb8CtSgCLLcMQY,0.0-3.0-0.30,8,[],F,,,"[{'role': 'speaker', 'text': 'man sitting feet visible', 'playerId': 'zzGaoZ3hK2qpc5XR6'}]",371177,,63,spr-buttons,selection,[],
806,the one true condition,,,,,,,,,0.0-3.0-1.30,,[],,,,,372080,,64,spr-buttons,feedback,[],
806,the one true condition,5856,2_rotate_6,True,I,,,,pR4tb8CtSgCLLcMQY,0.0-3.0-0.31,10,[],I,,,"[{'role': 'speaker', 'text': 'standing on one leg other back and parallel', 'playerId': 'zzGaoZ3hK2qpc5XR6'}]",377938,,65,spr-buttons,selection,[],
806,the one true condition,,,,,,,,,0.0-3.0-1.31,,[],,,,,378844,,66,spr-buttons,feedback,[],
806,the one true condition,38116,6_rotate_1,False,J,,,,93ZvRh5AYPNeTJxjv,0.0-3.0-0.32,2,[],K,,,"[{'role': 'speaker', 'text': 'straight edged on one side', 'playerId': 'dTAmMQ6Zw5AbRzRiT'}, {'role': 'speaker', 'text': 'diamond on top', 'playerId': 'dTAmMQ6Zw5AbRzRiT'}, {'role': 'speaker', 'text': 'then zig zag on right', 'playerId': 'dTAmMQ6Zw5AbRzRiT'}, {'role': 'listener', 'text': 'does the figure look like its standing , sitting etc', 'playerId': '5a7w57CMsYw6nbJgN'}, {'role': 'speaker', 'text': 'standing', 'playerId': 'dTAmMQ6Zw5AbRzRiT'}, {'role': 'speaker', 'text': 'zig zag on the side I meant', 'playerId': 'dTAmMQ6Zw5AbRzRiT'}, {'role': 'speaker', 'text': 'the right side', 'playerId': 'dTAmMQ6Zw5AbRzRiT'}, {'role': 'speaker', 'text': ""it's like a rectangle for the left"", 'playerId': 'dTAmMQ6Zw5AbRzRiT'}, {'role': 'listener', 'text': 'the bottom is flat right', 'playerId': 'EigvT8eA8dqhuxwk6'}, {'role': 'speaker', 'text': 'then zig zag on the right side', 'playerId': 'dTAmMQ6Zw5AbRzRiT'}]",416961,,67,spr-buttons,selection,[],
806,the one true condition,,,,,,,,,0.0-3.0-1.32,,[],,,,,417865,,68,spr-buttons,feedback,[],
806,the one true condition,48210,6_rotate_1,False,K,,,,kW6nqSFfGjERx6bEb,0.0-3.0-0.33,5,[],L,,,"[{'role': 'speaker', 'text': ""Icon looks like he's praying and kneeling down with hands level raise up"", 'playerId': 'duzLnXCW2isWvpxwx'}, {'role': 'listener', 'text': 'which side are the arms', 'playerId': 'vTKsYLwRAxfgspsyk'}, {'role': 'speaker', 'text': 'The feelt shaped like a duck', 'playerId': 'duzLnXCW2isWvpxwx'}, {'role': 'speaker', 'text': 'arms forward', 'playerId': 'duzLnXCW2isWvpxwx'}]",466077,,69,spr-buttons,selection,[],
806,the one true condition,,,,,,,,,0.0-3.0-1.33,,[],,,,,466992,,70,spr-buttons,feedback,[],
806,the one true condition,20410,2_rotate_1,True,B,,,,2Csg2Snzrpkud2YRi,0.0-3.0-0.34,11,[],B,,,"[{'role': 'speaker', 'text': 'diamond on the top in the center, the lowest point of the diamond is in between the crack of two shapes', 'playerId': 'DugA5xyi4CvXJWvaC'}]",487404,,71,spr-buttons,selection,[],
806,the one true condition,,,,,,,,,0.0-3.0-1.34,,[],,,,,488315,,72,spr-buttons,feedback,[],
806,the one true condition,3845,6_rotate_6,True,J,,,,yPMhLu9xFgbC5dWLY,0.0-3.0-0.35,7,[],J,,,"[{'role': 'speaker', 'text': 'square guy', 'playerId': 'awLY4XCudoFs3HNWo'}]",492162,,73,spr-buttons,selection,[],
806,the one true condition,,,,,,,,,0.0-3.0-1.35,,[],,,,,493071,,74,spr-buttons,feedback,[],
806,the one true condition,6289,2_rotate_6,True,E,,,,of4gY8Bu37PbmkPee,0.0-3.0-0.36,4,[],E,,,"[{'role': 'speaker', 'text': 'two triangles on top', 'playerId': '7NrLvX7rfwB2y54ZF'}, {'role': 'speaker', 'text': 'then square', 'playerId': '7NrLvX7rfwB2y54ZF'}]",499362,,75,spr-buttons,selection,[],
806,the one true condition,,,,,,,,,0.0-3.0-1.36,,[],,,,,500270,,76,spr-buttons,feedback,[],
806,the one true condition,9414,2_rotate_1,True,I,,,,dBAksjEwZCAZRyqJk,0.0-3.0-0.37,10,[],I,,,"[{'role': 'speaker', 'text': 'one foot on the ground the other at a 90 degree off the ground to the other foot', 'playerId': 'g2sowCsDmoh28sbgq'}]",509686,,77,spr-buttons,selection,[],
806,the one true condition,,,,,,,,,0.0-3.0-1.37,,[],,,,,510600,,78,spr-buttons,feedback,[],
806,the one true condition,8492,2_rotate_6,False,K,,,,GpF4Ge9YCd7ih3DFr,0.0-3.0-0.38,11,[],B,,,"[{'role': 'speaker', 'text': 'seal!', 'playerId': '9DEoh9BWkZFYxhECs'}]",519093,,79,spr-buttons,selection,[],
806,the one true condition,,,,,,,,,0.0-3.0-1.38,,[],,,,,520004,,80,spr-buttons,feedback,[],
806,the one true condition,13584,6_rotate_6,True,L,,,,4mKoevW3ykd2FDr7L,0.0-3.0-0.39,5,[],L,,,"[{'role': 'speaker', 'text': 'knees on right', 'playerId': 'vwpmmXPfWPvNcd9RA'}, {'role': 'speaker', 'text': 'triangle arm on right', 'playerId': 'vwpmmXPfWPvNcd9RA'}, {'role': 'speaker', 'text': 'feet on left', 'playerId': 'vwpmmXPfWPvNcd9RA'}, {'role': 'listener', 'text': 'Detached', 'playerId': 'jjY6d6CreGdbCxRHY'}, {'role': 'speaker', 'text': 'triangle shoulders', 'playerId': 'vwpmmXPfWPvNcd9RA'}, {'role': 'listener', 'text': 'Left feet pointed upwards', 'playerId': 'jjY6d6CreGdbCxRHY'}, {'role': 'listener', 'text': 'Squat', 'playerId': 'jjY6d6CreGdbCxRHY'}]",533590,,81,spr-buttons,selection,[],
806,the one true condition,,,,,,,,,0.0-3.0-1.39,,[],,,,,534499,,82,spr-buttons,feedback,[],
806,the one true condition,7282,6_rotate_1,True,J,,,,nySo3NiJX7Kres7zm,0.0-3.0-0.40,7,[],J,,,"[{'role': 'speaker', 'text': 'looks like a block', 'playerId': 'iMBFSMZFcXNsgL6Hp'}, {'role': 'speaker', 'text': 'head in middle', 'playerId': 'iMBFSMZFcXNsgL6Hp'}, {'role': 'speaker', 'text': ""can't see arms or legs properly"", 'playerId': 'iMBFSMZFcXNsgL6Hp'}, {'role': 'listener', 'text': 'back and legs are just a straight line', 'playerId': 'LqynML5vHZbk5fMhT'}, {'role': 'speaker', 'text': 'you can kind of see a pointed foot', 'playerId': 'iMBFSMZFcXNsgL6Hp'}, {'role': 'speaker', 'text': 'and pointy shoulder on right', 'playerId': 'iMBFSMZFcXNsgL6Hp'}]",541783,,83,spr-buttons,selection,[],
806,the one true condition,,,,,,,,,0.0-3.0-1.40,,[],,,,,542694,,84,spr-buttons,feedback,[],
806,the one true condition,3950,6_rotate_6,True,E,,,,7i3mnwWykEA95fvyk,0.0-3.0-0.41,4,[],E,,,"[{'role': 'speaker', 'text': 'rabbit', 'playerId': '6bYzncKaESZG3XQY3'}, {'role': 'speaker', 'text': 'ears', 'playerId': '6bYzncKaESZG3XQY3'}]",546647,,85,spr-buttons,selection,[],
806,the one true condition,,,,,,,,,0.0-3.0-1.41,,[],,,,,547563,,86,spr-buttons,feedback,[],
806,the one true condition,11906,2_rotate_6,True,F,,,,79swBZFsJnrQuHvhd,0.0-3.0-0.42,8,[],F,,,"[{'role': 'speaker', 'text': 'man sitting on floor with knees bent, facing left', 'playerId': 'b6WTJQoLvhx9dhQWk'}]",559471,,87,spr-buttons,selection,[],
806,the one true condition,,,,,,,,,0.0-3.0-1.42,,[],,,,,560383,,88,spr-buttons,feedback,[],
806,the one true condition,9266,2_rotate_6,False,K,,,,pR4tb8CtSgCLLcMQY,0.0-3.0-0.43,5,[],L,,,"[{'role': 'speaker', 'text': 'kneel in prayer', 'playerId': 'zzGaoZ3hK2qpc5XR6'}]",569651,,89,spr-buttons,selection,[],
806,the one true condition,,,,,,,,,0.0-3.0-1.43,,[],,,,,570554,,90,spr-buttons,feedback,[],
806,the one true condition,25117,6_rotate_1,False,B,,,,QiHQvZjkmw7v9k3P4,0.0-3.0-0.44,2,[],K,,,"[{'role': 'listener', 'text': 'facing right with hands', 'playerId': 'hJDoTe5Qoa4q2ejTt'}, {'role': 'listener', 'text': 'facing left', 'playerId': 'nETmq9AAvZMpuTarC'}, {'role': 'speaker', 'text': 'triangle body', 'playerId': 'Rju3Fq3cNiFHZ94te'}, {'role': 'listener', 'text': 'any legs', 'playerId': 'jEzRik8ujt4jnrqFG'}, {'role': 'listener', 'text': 'So standing then', 'playerId': 'hzsGC7CBSPkMEyDXq'}, {'role': 'speaker', 'text': 'not standing', 'playerId': 'Rju3Fq3cNiFHZ94te'}, {'role': 'speaker', 'text': 'like a triangle on its legs', 'playerId': 'Rju3Fq3cNiFHZ94te'}, {'role': 'listener', 'text': 'Small triangle on the bottom left', 'playerId': 'hzsGC7CBSPkMEyDXq'}, {'role': 'listener', 'text': 'facing right', 'playerId': 'mj43ozqpH4CgJjpyz'}, {'role': 'listener', 'text': 'kneeling', 'playerId': 'mj43ozqpH4CgJjpyz'}, {'role': 'listener', 'text': 'with feet flat to floor', 'playerId': 'mj43ozqpH4CgJjpyz'}]",595673,,91,spr-buttons,selection,[],
806,the one true condition,,,,,,,,,0.0-3.0-1.44,,[],,,,,596575,,92,spr-buttons,feedback,[],
806,the one true condition,18061,6_rotate_6,True,G,,,,4mKoevW3ykd2FDr7L,0.0-3.0-0.45,1,[],G,,,"[{'role': 'speaker', 'text': 'two triangles on right', 'playerId': 'vwpmmXPfWPvNcd9RA'}, {'role': 'speaker', 'text': 'trapezoid bottom left', 'playerId': 'vwpmmXPfWPvNcd9RA'}, {'role': 'speaker', 'text': 'looks like a horse mayb', 'playerId': 'vwpmmXPfWPvNcd9RA'}, {'role': 'speaker', 'text': 'small triangle below head on the left', 'playerId': 'vwpmmXPfWPvNcd9RA'}]",614639,,93,spr-buttons,selection,[],
806,the one true condition,,,,,,,,,0.0-3.0-1.45,,[],,,,,615545,,94,spr-buttons,feedback,[],
806,the one true condition,23328,2_rotate_1,True,H,,,,gjooqsuf2CPN5AWxi,0.0-3.0-0.46,9,[],H,,,"[{'role': 'speaker', 'text': 'A diamond right on top, with a slight point out to the bottom right', 'playerId': 'tuNTPZ2dpnLz8EKgu'}, {'role': 'speaker', 'text': ""no 'arms'"", 'playerId': 'tuNTPZ2dpnLz8EKgu'}]",638876,,95,spr-buttons,selection,[],
806,the one true condition,,,,,,,,,0.0-3.0-1.46,,[],,,,,639780,,96,spr-buttons,feedback,[],
806,the one true condition,9365,2_rotate_6,False,K,,,,Ja6HX8DgvFAspRAYm,0.0-3.0-0.47,5,[],L,,,"[{'role': 'speaker', 'text': 'on knees, feet on left, bowl to right', 'playerId': 'Kzhdqc62M5vtN2q4e'}]",649147,,97,spr-buttons,selection,[],
806,the one true condition,,,,,,,,,0.0-3.0-1.47,,[],,,,,650061,,98,spr-buttons,feedback,[],
806,the one true condition,11743,6_rotate_1,True,L,,,,k4otZKu35xehtF93F,0.0-3.0-0.48,5,[],L,,,"[{'role': 'speaker', 'text': 'kneeled down and praying', 'playerId': '2uEiLua7RSNzB3CP8'}, {'role': 'listener', 'text': 'With feet up or feet down', 'playerId': 'Sb5t7YLhHirE7JfNH'}, {'role': 'speaker', 'text': 'down', 'playerId': '2uEiLua7RSNzB3CP8'}]",661807,,99,spr-buttons,selection,[],
806,the one true condition,,,,,,,,,0.0-3.0-1.48,,[],,,,,662716,,100,spr-buttons,feedback,[],
806,the one true condition,2512,6_rotate_6,True,I,,,,znSiJdhs7sWk5xhgA,0.0-3.0-0.49,10,[],I,,,"[{'role': 'speaker', 'text': 'ice skater', 'playerId': '4fTnjYS9Cge7Tv7ou'}, {'role': 'speaker', 'text': 'one foot on ground, one up', 'playerId': '4fTnjYS9Cge7Tv7ou'}]",665230,,101,spr-buttons,selection,[],
806,the one true condition,,,,,,,,,0.0-3.0-1.49,,[],,,,,666136,,102,spr-buttons,feedback,[],
806,the one true condition,11100,6_rotate_6,False,L,,,,7i3mnwWykEA95fvyk,0.0-3.0-0.50,1,[],G,,,"[{'role': 'speaker', 'text': ""it's the pac man but not the pack man"", 'playerId': '6bYzncKaESZG3XQY3'}, {'role': 'speaker', 'text': ""it's the zig zag one"", 'playerId': '6bYzncKaESZG3XQY3'}]",677236,,103,spr-buttons,selection,[],
806,the one true condition,,,,,,,,,0.0-3.0-1.50,,[],,,,,678143,,104,spr-buttons,feedback,[],
806,the one true condition,12302,2_rotate_1,True,I,,,,GpF4Ge9YCd7ih3DFr,0.0-3.0-0.51,10,[],I,,,"[{'role': 'speaker', 'text': 'ok, crane pose looking to the left', 'playerId': 'cjtnTXrerxbK7pi39'}, {'role': 'speaker', 'text': 'on one foot', 'playerId': 'cjtnTXrerxbK7pi39'}, {'role': 'speaker', 'text': 'with a leg facing outwards towards the right', 'playerId': 'cjtnTXrerxbK7pi39'}, {'role': 'speaker', 'text': 'two hands extended facing the right', 'playerId': 'cjtnTXrerxbK7pi39'}, {'role': 'speaker', 'text': 'diamond head', 'playerId': 'cjtnTXrerxbK7pi39'}, {'role': 'speaker', 'text': 'two hands facing left', 'playerId': 'cjtnTXrerxbK7pi39'}, {'role': 'speaker', 'text': 'ARMS FACING LEFT', 'playerId': 'cjtnTXrerxbK7pi39'}, {'role': 'listener', 'text': 'does it look a bit like a bird', 'playerId': '9DEoh9BWkZFYxhECs'}, {'role': 'speaker', 'text': ""it's a guy on one leg"", 'playerId': 'cjtnTXrerxbK7pi39'}]",690447,,105,spr-buttons,selection,[],
806,the one true condition,,,,,,,,,0.0-3.0-1.51,,[],,,,,691359,,106,spr-buttons,feedback,[],
806,the one true condition,17195,2_rotate_6,False,H,,,,3A9hhryuHHeDQhoGy,0.0-3.0-0.52,3,[],D,,,"[{'role': 'speaker', 'text': 'facing right and no arms and legs visible', 'playerId': 'FqnLSC6GxDNz6hS73'}]",708556,,107,spr-buttons,selection,[],
806,the one true condition,,,,,,,,,0.0-3.0-1.52,,[],,,,,709467,,108,spr-buttons,feedback,[],
806,the one true condition,10023,2_rotate_6,False,L,,,,79swBZFsJnrQuHvhd,0.0-3.0-0.53,11,[],B,,,"[{'role': 'speaker', 'text': 'sharp s shape', 'playerId': 'b6WTJQoLvhx9dhQWk'}]",719493,,109,spr-buttons,selection,[],
806,the one true condition,,,,,,,,,0.0-3.0-1.53,,[],,,,,720404,,110,spr-buttons,feedback,[],
806,the one true condition,15124,6_rotate_1,False,K,,,,nySo3NiJX7Kres7zm,0.0-3.0-0.54,5,[],L,,,"[{'role': 'speaker', 'text': 'like someone on their knees with arms out to the right', 'playerId': 'iMBFSMZFcXNsgL6Hp'}, {'role': 'speaker', 'text': 'head upwards', 'playerId': 'iMBFSMZFcXNsgL6Hp'}, {'role': 'listener', 'text': 'like oliver begging for more food', 'playerId': 'LqynML5vHZbk5fMhT'}, {'role': 'speaker', 'text': 'sort of yes, but the one where legs are fully on floor', 'playerId': 'iMBFSMZFcXNsgL6Hp'}, {'role': 'speaker', 'text': 'not the one where the knees just look bent', 'playerId': 'iMBFSMZFcXNsgL6Hp'}]",735530,,111,spr-buttons,selection,[],
806,the one true condition,,,,,,,,,0.0-3.0-1.54,,[],,,,,736444,,112,spr-buttons,feedback,[],
