workerid,proliferate.condition,button_rt,condition,correct,correct_tangram,failed_audio,failed_images,failed_video,gameId,internal_node_id,response,rt,selected,stimulus,success,text,time_elapsed,timeout,trial_index,trial_type,type,word,error
914,the one true condition,,,,,[],[],[],,0.0-0.0,,,,,True,,87,False,0,preload,,,
914,the one true condition,,,,,,,,,0.0-1.0,0,4018,," <center><img width=""300px"" src=""assets/stanford.png"" /></center><div id=""legal""></br>By answering the following questions, you are participating in a study being performed by cognitive scientists in the Stanford Department of Psychology. If you have questions about this research, please contact us at  <a href=""mailto://languagecoglab@gmail.com.""> languagecoglab@gmail.com</a>.You must be at least 18 years old to participate. Your participation in this research is voluntary. You may decline to answer any or all of the following questions. You may decline further participation, at any time, without adverse consequences. Your anonymity is assured; the researchers who have requested your participation will not receive any personal information about you. </div></br>",,,4106,,1,html-button-response,,,
914,the one true condition,,,,,,,,,0.0-2.0,0,60824,,"<h3>Please read these instructions carefully!</h3> </br><div id=""intro""> <p>In this task, you will see a <b>transcript of a conversation</b> some previous participants had where a <b>speaker identified one of the images to some listeners</b>.</p></br><center><img width=""600px"" src=""assets/demo.png"" /></center></br><p>Your goal is to <b>read the transcript</b> and <b>figure out which image</b> is being described! </p><p>You will <b>click the image</b> you think is being described, and then you will <b>find out if you were right</b>.<p><p>You will see <b>64 trials</b>. The image choices will stay the same, but the transcripts will come from different groups of people. Some of the transcripts may be much shorter or longer than others. Some of the descriptions may be hard to understand -- just take a guess if you are not sure.</p><p>You will get a bonus of <b>5 cents</b> for each image you get right! </p><p> <b>Note:</b> These descriptions came from real people and may contain inappropriate or offensive language. If you find a description inappropriate, please let us know via Prolific message or in the exit survey, so we can filter it out in the future.</p>",,,64930,,2,html-button-response,,,
914,the one true condition,24997,2_thick_1,False,K,,,,rshQ6tYBS22PNQeTe,0.0-3.0-0.0,8,[],E,,,"[{'role': 'speaker', 'text': 'facing rightwards, like a head with an additional diamond on top, hands in a prayer pose', 'playerId': 'MgJ37EC6d5m8bs8h7'}, {'role': 'speaker', 'text': ""it's the only one with two diamonds for a head"", 'playerId': 'MgJ37EC6d5m8bs8h7'}]",89931,,3,spr-buttons,selection,[],
914,the one true condition,,,,,,,,,0.0-3.0-1.0,,[],,,,,90849,,4,spr-buttons,feedback,[],
914,the one true condition,13348,2_thin_6,False,A,,,,BP9jqaXgDcqoupu9X,0.0-3.0-0.1,7,[],K,,,"[{'role': 'speaker', 'text': '* The guy with the head facing right, and the legs facing the other way One of the legs lifted', 'playerId': '6FJS2spM98nBBPJdc'}]",104197,,5,spr-buttons,selection,[],
914,the one true condition,,,,,,,,,0.0-3.0-1.1,,[],,,,,105101,,6,spr-buttons,feedback,[],
914,the one true condition,5525,2_thick_6,True,I,,,,PF2Wo9cXvN4eYEgQm,0.0-3.0-0.2,5,[],I,,,"[{'role': 'speaker', 'text': 'one foot down one foot out behind arms outstretched facing left', 'playerId': '8Dpsmcfr85fEhvbo5'}]",110629,,7,spr-buttons,selection,[],
914,the one true condition,,,,,,,,,0.0-3.0-1.2,,[],,,,,111540,,8,spr-buttons,feedback,[],
914,the one true condition,10356,6_thin_1,True,G,,,,yf4vLYMpH9j84z98K,0.0-3.0-0.3,4,[],G,,,"[{'role': 'speaker', 'text': 'Lots of shapes on this one Kind of looks like someone lounging with a hand behind them', 'playerId': 'fRQb9DJBabAZCcAjY'}]",121899,,9,spr-buttons,selection,[],
914,the one true condition,,,,,,,,,0.0-3.0-1.3,,[],,,,,122802,,10,spr-buttons,feedback,[],
914,the one true condition,5815,6_thick_6,False,A,,,,2p26ok9CFsRGJGceh,0.0-3.0-0.4,8,[],E,,,"[{'role': 'speaker', 'text': 'Happy Bunny 5 5 This one is sad lizard with flag', 'playerId': 'wcqH3MeeC8KicnQmh'}]",128621,,11,spr-buttons,selection,[],
914,the one true condition,,,,,,,,,0.0-3.0-1.4,,[],,,,,129524,,12,spr-buttons,feedback,[],
914,the one true condition,8234,6_thin_6,False,E,,,,XbZk9j8EZFLzxLNGC,0.0-3.0-0.5,6,[],L,,,"[{'role': 'speaker', 'text': 'person with a head dress sitting facing right', 'playerId': 'xAo494dnYpcdA5GYh'}]",137761,,13,spr-buttons,selection,[],
914,the one true condition,,,,,,,,,0.0-3.0-1.5,,[],,,,,138666,,14,spr-buttons,feedback,[],
914,the one true condition,9461,2_thick_6,False,B,,,,ReHEztHvdLg42SEGu,0.0-3.0-0.6,7,[],K,,,"[{'role': 'speaker', 'text': 'person kneeling COMPLETELY FLAT ON THE GROUND two pointed triangles on its side', 'playerId': 'dRD2qauYBz3is79vB'}, {'role': 'speaker', 'text': 'wearing a shoe', 'playerId': 'dRD2qauYBz3is79vB'}]",148130,,15,spr-buttons,selection,[],
914,the one true condition,,,,,,,,,0.0-3.0-1.6,,[],,,,,149038,,16,spr-buttons,feedback,[],
914,the one true condition,7796,6_thick_6,False,L,,,,XPDgovNnwsyppFmAf,0.0-3.0-0.7,0,[],B,,,"[{'role': 'speaker', 'text': 'half crouched', 'playerId': 'gwt4PNWvsk9BAK8Ed'}]",156837,,17,spr-buttons,selection,[],
914,the one true condition,,,,,,,,,0.0-3.0-1.7,,[],,,,,157746,,18,spr-buttons,feedback,[],
914,the one true condition,12609,6_thin_1,False,K,,,,dh6tkArXHwNp8Aru4,0.0-3.0-0.8,10,[],D,,,"[{'role': 'speaker', 'text': 'KNEELING UP WITH HANDS OUT', 'playerId': 'bPKaFxCT9xHgbCHWZ'}, {'role': 'speaker', 'text': 'STRAIGHT BACK', 'playerId': 'bPKaFxCT9xHgbCHWZ'}, {'role': 'speaker', 'text': 'FEET POINTING UP', 'playerId': 'bPKaFxCT9xHgbCHWZ'}]",170358,,19,spr-buttons,selection,[],
914,the one true condition,,,,,,,,,0.0-3.0-1.8,,[],,,,,171262,,20,spr-buttons,feedback,[],
914,the one true condition,20857,2_thin_1,True,G,,,,9wbjtnF8xe5ymzikg,0.0-3.0-0.9,4,[],G,,,"[{'role': 'speaker', 'text': 'This is very tricky one second', 'playerId': '3R3qpxKrLougMSfGd'}, {'role': 'speaker', 'text': 'The head is tilting backwards towards the left side', 'playerId': '3R3qpxKrLougMSfGd'}, {'role': 'speaker', 'text': 'The body is like a inflated comma', 'playerId': '3R3qpxKrLougMSfGd'}, {'role': 'speaker', 'text': 'The bottom half is like a comma shape', 'playerId': '3R3qpxKrLougMSfGd'}, {'role': 'speaker', 'text': 'It resembles a horse lifting its front legs', 'playerId': '3R3qpxKrLougMSfGd'}]",192123,,21,spr-buttons,selection,[],
914,the one true condition,,,,,,,,,0.0-3.0-1.9,,[],,,,,193026,,22,spr-buttons,feedback,[],
914,the one true condition,17856,6_thick_1,True,A,,,,vHRdxbuskY9MXxf4j,0.0-3.0-0.10,3,[],A,,,"[{'role': 'listener', 'text': ""That's what i'm talking about"", 'playerId': 'diPZJB3aPyKz8PQGT'}, {'role': 'speaker', 'text': ""this one looks like he's walking, facing left with one foot up"", 'playerId': 'RSQku3ckThbYxojeR'}, {'role': 'listener', 'text': 'almost like the zombie walk, and a weird triangle shape at the top left', 'playerId': 'diPZJB3aPyKz8PQGT'}]",210886,,23,spr-buttons,selection,[],
914,the one true condition,,,,,,,,,0.0-3.0-1.10,,[],,,,,211800,,24,spr-buttons,feedback,[],
914,the one true condition,8145,6_thick_1,False,L,,,,ZJwZxaeBDE6xqPFAv,0.0-3.0-0.11,11,[],J,,,"[{'role': 'speaker', 'text': 'This looks like someone kneeling, holding triangle arms to OUR right, kneeling down, their square head', 'playerId': 'e9g86kP6Wh4MDo4hN'}, {'role': 'speaker', 'text': 'By arms I mean ONE sort of triangle pointing rightward', 'playerId': 'e9g86kP6Wh4MDo4hN'}, {'role': 'speaker', 'text': 'The bottom makes a sort of parallelogram +', 'playerId': 'e9g86kP6Wh4MDo4hN'}]",219949,,25,spr-buttons,selection,[],
914,the one true condition,,,,,,,,,0.0-3.0-1.11,,[],,,,,220857,,26,spr-buttons,feedback,[],
914,the one true condition,3701,2_thick_1,True,E,,,,4bDDi23d6D8SJkrgQ,0.0-3.0-0.12,8,[],E,,,"[{'role': 'speaker', 'text': 'like a bunny with two big triangle ears', 'playerId': 'P5nFedWBmEvAmd8CD'}, {'role': 'speaker', 'text': 'the body is facing to the right', 'playerId': 'P5nFedWBmEvAmd8CD'}]",224561,,27,spr-buttons,selection,[],
914,the one true condition,,,,,,,,,0.0-3.0-1.12,,[],,,,,225469,,28,spr-buttons,feedback,[],
914,the one true condition,5228,6_thin_1,False,L,,,,7Djg3JQnctbBGbR6q,0.0-3.0-0.13,10,[],D,,,"[{'role': 'speaker', 'text': 'The person is kneeling holding a plate and her feet do not turn up', 'playerId': 'Ef4nkLWp4LNYMmKPA'}]",230700,,29,spr-buttons,selection,[],
914,the one true condition,,,,,,,,,0.0-3.0-1.13,,[],,,,,231603,,30,spr-buttons,feedback,[],
914,the one true condition,9742,2_thin_6,False,B,,,,Aq5QevmQACnfqeuj4,0.0-3.0-0.14,7,[],K,,,"[{'role': 'speaker', 'text': 'It is kneeling facing the right with boths hands in the air', 'playerId': 'QWnE4mnYS4vBNFQdu'}]",241348,,31,spr-buttons,selection,[],
914,the one true condition,,,,,,,,,0.0-3.0-1.14,,[],,,,,242251,,32,spr-buttons,feedback,[],
914,the one true condition,3607,2_thick_6,False,K,,,,voSMQaG9H4nC4jy32,0.0-3.0-0.15,5,[],I,,,"[{'role': 'speaker', 'text': 'kneeling down with plate out', 'playerId': 'xCczn7ZDHtYRWQE6W'}, {'role': 'speaker', 'text': 'with tail', 'playerId': 'xCczn7ZDHtYRWQE6W'}]",245861,,33,spr-buttons,selection,[],
914,the one true condition,,,,,,,,,0.0-3.0-1.15,,[],,,,,246763,,34,spr-buttons,feedback,[],
914,the one true condition,4895,6_thick_1,True,E,,,,QeHxf8rJXN8MCSKYR,0.0-3.0-0.16,8,[],E,,,"[{'role': 'speaker', 'text': 'this is the one that appears to have a square head with two triangles on top and looks as though it is sitting on the floor facing to the right with knees bent up', 'playerId': 'NxLjuiDi5cuFnLeTt'}]",251661,,35,spr-buttons,selection,[],
914,the one true condition,,,,,,,,,0.0-3.0-1.16,,[],,,,,252563,,36,spr-buttons,feedback,[],
914,the one true condition,8499,6_thick_6,False,D,,,,2p26ok9CFsRGJGceh,0.0-3.0-0.17,0,[],B,,,"[{'role': 'speaker', 'text': ""5 5 It's the priest again giving his sermon to people on left"", 'playerId': 'wcqH3MeeC8KicnQmh'}]",261065,,37,spr-buttons,selection,[],
914,the one true condition,,,,,,,,,0.0-3.0-1.17,,[],,,,,261970,,38,spr-buttons,feedback,[],
914,the one true condition,10502,6_thick_1,False,B,,,,AM32EpWzbjLmWKqQX,0.0-3.0-0.18,3,[],A,,,"[{'role': 'speaker', 'text': 'Person on their knees, hands outstretched, feet to their left', 'playerId': 'ipD6BWixZJPo2Pigc'}, {'role': 'speaker', 'text': 'Triangle almost separated from the body on the right side', 'playerId': 'ipD6BWixZJPo2Pigc'}, {'role': 'speaker', 'text': 'Seperated', 'playerId': 'ipD6BWixZJPo2Pigc'}]",272475,,39,spr-buttons,selection,[],
914,the one true condition,,,,,,,,,0.0-3.0-1.18,,[],,,,,273387,,40,spr-buttons,feedback,[],
914,the one true condition,7606,2_thin_6,False,E,,,,3yh8YmunGyJ3aQmWd,0.0-3.0-0.19,0,[],B,,,"[{'role': 'speaker', 'text': 'box on a hill', 'playerId': 'jYjCgmiAtd4SvCC8t'}]",280996,,41,spr-buttons,selection,[],
914,the one true condition,,,,,,,,,0.0-3.0-1.19,,[],,,,,281899,,42,spr-buttons,feedback,[],
914,the one true condition,6167,6_thin_6,True,H,,,,9AyhLQe5bddaES2Af,0.0-3.0-0.20,2,[],H,,,"[{'role': 'speaker', 'text': 'no limbs can be seen other than one leg kicking out slightly from the right', 'playerId': 'FrQn83bw5h6sWkhYE'}, {'role': 'speaker', 'text': 'no body limbs!', 'playerId': 'FrQn83bw5h6sWkhYE'}]",288068,,43,spr-buttons,selection,[],
914,the one true condition,,,,,,,,,0.0-3.0-1.20,,[],,,,,288982,,44,spr-buttons,feedback,[],
914,the one true condition,12542,2_thin_6,False,L,,,,byWRCj2bTz2Guefog,0.0-3.0-0.21,0,[],B,,,"[{'role': 'speaker', 'text': 'person is crouched, just a right arm, looking right', 'playerId': 'XJrMGAcWFb5rBFLwQ'}]",301527,,45,spr-buttons,selection,[],
914,the one true condition,,,,,,,,,0.0-3.0-1.21,,[],,,,,302433,,46,spr-buttons,feedback,[],
914,the one true condition,9921,6_thin_1,False,K,,,,Nh8nE8Qa4C3BkbhD6,0.0-3.0-0.22,4,[],G,,,"[{'role': 'speaker', 'text': 'appears to be kneeling, , head straight,', 'playerId': 'kGFgXyvd4DGKWJytw'}, {'role': 'speaker', 'text': 'i get the sense they are in prayer position looking to the right', 'playerId': 'kGFgXyvd4DGKWJytw'}, {'role': 'speaker', 'text': 'triangle Up on the back', 'playerId': 'kGFgXyvd4DGKWJytw'}]",312355,,47,spr-buttons,selection,[],
914,the one true condition,,,,,,,,,0.0-3.0-1.22,,[],,,,,313267,,48,spr-buttons,feedback,[],
914,the one true condition,4149,2_thick_6,True,J,,,,voSMQaG9H4nC4jy32,0.0-3.0-0.23,11,[],J,,,"[{'role': 'speaker', 'text': 'square guy', 'playerId': 'xCczn7ZDHtYRWQE6W'}]",317419,,49,spr-buttons,selection,[],
914,the one true condition,,,,,,,,,0.0-3.0-1.23,,[],,,,,318323,,50,spr-buttons,feedback,[],
914,the one true condition,5710,6_thin_6,True,C,,,,hycXgPznSi3hzjcfX,0.0-3.0-0.24,1,[],C,,,"[{'role': 'speaker', 'text': 'arms up, slanted man', 'playerId': 'TWXWnAChyvw94LtaH'}]",324035,,51,spr-buttons,selection,[],
914,the one true condition,,,,,,,,,0.0-3.0-1.24,,[],,,,,324938,,52,spr-buttons,feedback,[],
914,the one true condition,4088,2_thin_1,True,I,,,,byWRCj2bTz2Guefog,0.0-3.0-0.25,5,[],I,,,"[{'role': 'speaker', 'text': 'this looks like a ballet dancer with a leg stretched back, but the leg is a triangle and the head is a square', 'playerId': 'AXLc5WsF9dMwS482A'}, {'role': 'speaker', 'text': 'the chest is two triangles on the left', 'playerId': 'AXLc5WsF9dMwS482A'}]",329029,,53,spr-buttons,selection,[],
914,the one true condition,,,,,,,,,0.0-3.0-1.25,,[],,,,,329932,,54,spr-buttons,feedback,[],
914,the one true condition,6532,2_thick_6,False,J,,,,8rdFCKG2CvuTrLnAM,0.0-3.0-0.26,2,[],H,,,"[{'role': 'speaker', 'text': 'shape with straight left side', 'playerId': 'sXCiFPWdDG3oRZb4u'}]",336467,,55,spr-buttons,selection,[],
914,the one true condition,,,,,,,,,0.0-3.0-1.26,,[],,,,,337370,,56,spr-buttons,feedback,[],
914,the one true condition,6495,6_thick_6,True,F,,,,AM32EpWzbjLmWKqQX,0.0-3.0-0.27,9,[],F,,,"[{'role': 'speaker', 'text': 'Person sitting again, legs out to the left, head bent to the left', 'playerId': 'ipD6BWixZJPo2Pigc'}]",343868,,57,spr-buttons,selection,[],
914,the one true condition,,,,,,,,,0.0-3.0-1.27,,[],,,,,344771,,58,spr-buttons,feedback,[],
914,the one true condition,16486,6_thin_1,True,L,,,,GfdodQMJHhNodveqQ,0.0-3.0-0.28,6,[],L,,,"[{'role': 'speaker', 'text': 'select the figure which is pointing to the right and looks like it is halfway to kneeling down', 'playerId': 'mJoMeCNLNBvXsdrNr'}]",361260,,59,spr-buttons,selection,[],
914,the one true condition,,,,,,,,,0.0-3.0-1.28,,[],,,,,362165,,60,spr-buttons,feedback,[],
914,the one true condition,2764,6_thick_1,True,I,,,,xxh6EZ5ESMvTDboLx,0.0-3.0-0.29,5,[],I,,,"[{'role': 'speaker', 'text': 'looks like a figure skater foot behind to the right', 'playerId': 'ETWC7GktmiQ8Fmtef'}]",364932,,61,spr-buttons,selection,[],
914,the one true condition,,,,,,,,,0.0-3.0-1.29,,[],,,,,365843,,62,spr-buttons,feedback,[],
914,the one true condition,5858,2_thick_1,False,G,,,,TswNa6hfiGwkWHMgB,0.0-3.0-0.30,0,[],B,,,"[{'role': 'speaker', 'text': 'Dancing girl with long train on the back of dress', 'playerId': 'BCjiqev2Kt7Lze3nQ'}]",371701,,63,spr-buttons,selection,[],
914,the one true condition,,,,,,,,,0.0-3.0-1.30,,[],,,,,372604,,64,spr-buttons,feedback,[],
914,the one true condition,7963,2_thick_6,True,D,,,,XDoay5WJnvL23rCdz,0.0-3.0-0.31,10,[],D,,,"[{'role': 'speaker', 'text': 'standing woman in a kimono facing our left and droopy sleeves', 'playerId': '8HW5HPk6BcWhLNEud'}]",380570,,65,spr-buttons,selection,[],
914,the one true condition,,,,,,,,,0.0-3.0-1.31,,[],,,,,381484,,66,spr-buttons,feedback,[],
914,the one true condition,2694,2_thin_1,True,E,,,,6ZtMrReWRYFFydpHK,0.0-3.0-0.32,8,[],E,,,"[{'role': 'speaker', 'text': 'Looks a little like a rabbit sitting on the floor facing toward the right hand side Two triangles on a diamond atop another triangle', 'playerId': 'D3HFDGENYCiG9LDJf'}]",384181,,67,spr-buttons,selection,[],
914,the one true condition,,,,,,,,,0.0-3.0-1.32,,[],,,,,385084,,68,spr-buttons,feedback,[],
914,the one true condition,3484,6_thin_6,True,I,,,,PppCQXs7SSfgS4Ygj,0.0-3.0-0.33,5,[],I,,,"[{'role': 'speaker', 'text': 'two arms pointing left, one leg kicked out to the right, standing on one leg', 'playerId': 'fBDb4v9G46e3McF8B'}]",388570,,69,spr-buttons,selection,[],
914,the one true condition,,,,,,,,,0.0-3.0-1.33,,[],,,,,389474,,70,spr-buttons,feedback,[],
914,the one true condition,4149,6_thick_6,False,D,,,,5wn4MiopXyfXuTxG9,0.0-3.0-0.34,2,[],H,,,"[{'role': 'speaker', 'text': 'This figure is completely upright with the squarish limb to the front', 'playerId': 'HJoHFMvp6qPSD2pXk'}]",393626,,71,spr-buttons,selection,[],
914,the one true condition,,,,,,,,,0.0-3.0-1.34,,[],,,,,394537,,72,spr-buttons,feedback,[],
914,the one true condition,14763,6_thin_6,False,J,,,,PDtkH4fTndXzR4oNt,0.0-3.0-0.35,10,[],D,,,"[{'role': 'speaker', 'text': 'long straight bit on the right, candle bit on the left', 'playerId': 'aYEneuu2qPkdL2PeC'}, {'role': 'speaker', 'text': 'diamond on the top', 'playerId': 'aYEneuu2qPkdL2PeC'}, {'role': 'speaker', 'text': 'looks like a candle', 'playerId': 'aYEneuu2qPkdL2PeC'}, {'role': 'speaker', 'text': 'long straight on the left hand side', 'playerId': 'aYEneuu2qPkdL2PeC'}]",409303,,73,spr-buttons,selection,[],
914,the one true condition,,,,,,,,,0.0-3.0-1.35,,[],,,,,410221,,74,spr-buttons,feedback,[],
914,the one true condition,3479,6_thick_6,True,F,,,,d3pirdbXLaHdgxR9t,0.0-3.0-0.36,9,[],F,,,"[{'role': 'speaker', 'text': 'sitting on your bum', 'playerId': 'YvaYGp3i8g88dxJR7'}]",413703,,75,spr-buttons,selection,[],
914,the one true condition,,,,,,,,,0.0-3.0-1.36,,[],,,,,414607,,76,spr-buttons,feedback,[],
914,the one true condition,6036,6_thin_1,False,K,,,,dG226KpEbdnXwkPGx,0.0-3.0-0.37,6,[],L,,,"[{'role': 'speaker', 'text': 'Looks like the image is bowing down', 'playerId': 'MRy5sG4H9RcBMfW2b'}, {'role': 'speaker', 'text': 'Holding a bowl', 'playerId': 'MRy5sG4H9RcBMfW2b'}]",420646,,77,spr-buttons,selection,[],
914,the one true condition,,,,,,,,,0.0-3.0-1.37,,[],,,,,421559,,78,spr-buttons,feedback,[],
914,the one true condition,1736,2_thin_1,False,L,,,,GGz5Zb58tHpG8X5z7,0.0-3.0-0.38,7,[],K,,,"[{'role': 'speaker', 'text': 'kneeling', 'playerId': 'HfeucCnhyMQZNxJYH'}]",423298,,79,spr-buttons,selection,[],
914,the one true condition,,,,,,,,,0.0-3.0-1.38,,[],,,,,424212,,80,spr-buttons,feedback,[],
914,the one true condition,3950,6_thick_1,True,F,,,,C6NxFhmDQvNgE2P68,0.0-3.0-0.39,9,[],F,,,"[{'role': 'speaker', 'text': 'Sitting down, facing left, knees are pulled up halfway', 'playerId': 'CsbCqNrAHc5ueS2rd'}]",428162,,81,spr-buttons,selection,[],
914,the one true condition,,,,,,,,,0.0-3.0-1.39,,[],,,,,429080,,82,spr-buttons,feedback,[],
914,the one true condition,11718,6_thick_1,True,G,,,,QkKavPsKXNH5uJzrs,0.0-3.0-0.40,4,[],G,,,"[{'role': 'speaker', 'text': 'this one almost looks like a person dancing', 'playerId': 'ySkkTvw6MWq2jN8sB'}, {'role': 'speaker', 'text': 'with a large object being pulled behind them', 'playerId': 'ySkkTvw6MWq2jN8sB'}, {'role': 'speaker', 'text': 'overall the design kind of makes a letter ""J""', 'playerId': 'ySkkTvw6MWq2jN8sB'}, {'role': 'speaker', 'text': 'it does NOT look like a person sitting', 'playerId': 'ySkkTvw6MWq2jN8sB'}]",440800,,83,spr-buttons,selection,[],
914,the one true condition,,,,,,,,,0.0-3.0-1.40,,[],,,,,441705,,84,spr-buttons,feedback,[],
914,the one true condition,2487,2_thin_6,True,I,,,,c3627RTtA7SfM2g6N,0.0-3.0-0.41,5,[],I,,,"[{'role': 'speaker', 'text': 'karate kick behind', 'playerId': 'AYaqScZTLQv5T9cvK'}]",444194,,85,spr-buttons,selection,[],
914,the one true condition,,,,,,,,,0.0-3.0-1.41,,[],,,,,445098,,86,spr-buttons,feedback,[],
914,the one true condition,39826,6_thin_1,False,G,,,,2gkxKTcPdQews5qTX,0.0-3.0-0.42,8,[],E,,,"[{'role': 'speaker', 'text': 'think of a shoe the heel is a triangle but is not touching the ground there is a square ate the top left', 'playerId': 'yN5pFmHQdR2zzStyt'}]",484924,,87,spr-buttons,selection,[],
914,the one true condition,,,,,,,,,0.0-3.0-1.42,,[],,,,,485841,,88,spr-buttons,feedback,[],
914,the one true condition,7199,2_thick_6,False,K,,,,rshQ6tYBS22PNQeTe,0.0-3.0-0.43,8,[],E,,,"[{'role': 'speaker', 'text': 'two diamonds', 'playerId': 'MgJ37EC6d5m8bs8h7'}]",493044,,89,spr-buttons,selection,[],
914,the one true condition,,,,,,,,,0.0-3.0-1.43,,[],,,,,493947,,90,spr-buttons,feedback,[],
914,the one true condition,6491,2_thin_6,False,E,,,,oJFB5dkDNtRxZNzec,0.0-3.0-0.44,3,[],A,,,"[{'role': 'speaker', 'text': 'hat', 'playerId': '4AsFJzDE4jwjApMjQ'}]",500441,,91,spr-buttons,selection,[],
914,the one true condition,,,,,,,,,0.0-3.0-1.44,,[],,,,,501358,,92,spr-buttons,feedback,[],
914,the one true condition,6823,2_thick_1,False,C,,,,NdrBpKKdJinL4P9pF,0.0-3.0-0.45,4,[],G,,,"[{'role': 'speaker', 'text': 'triangle between two rhombuses and on top of another', 'playerId': 'fzPLirZgYXeqXcey7'}, {'role': 'speaker', 'text': 'looks like a guy leaning to the left with his arms up', 'playerId': 'fzPLirZgYXeqXcey7'}]",508185,,93,spr-buttons,selection,[],
914,the one true condition,,,,,,,,,0.0-3.0-1.45,,[],,,,,509099,,94,spr-buttons,feedback,[],
914,the one true condition,3010,6_thick_6,True,F,,,,idfdowLZKpkzB8ypa,0.0-3.0-0.46,9,[],F,,,"[{'role': 'speaker', 'text': 'sitting on floor with knees bent upwards', 'playerId': 'hWLbCy7ApJfJBtYmh'}]",512113,,95,spr-buttons,selection,[],
914,the one true condition,,,,,,,,,0.0-3.0-1.46,,[],,,,,513016,,96,spr-buttons,feedback,[],
914,the one true condition,3727,6_thick_6,True,A,,,,FQmZmJts5MsgBFKCs,0.0-3.0-0.47,3,[],A,,,"[{'role': 'speaker', 'text': 'zombie', 'playerId': '4bzGCtgSy2NNk9Q5m'}]",516746,,97,spr-buttons,selection,[],
914,the one true condition,,,,,,,,,0.0-3.0-1.47,,[],,,,,517650,,98,spr-buttons,feedback,[],
914,the one true condition,8996,6_thin_6,True,B,,,,iWDET8rLPYMj9RE39,0.0-3.0-0.48,0,[],B,,,"[{'role': 'speaker', 'text': 'triangle bottom left', 'playerId': 'yS4bdq7buoNJWwCGR'}, {'role': 'speaker', 'text': '2 triangles under diamond head', 'playerId': 'yS4bdq7buoNJWwCGR'}]",526648,,99,spr-buttons,selection,[],
914,the one true condition,,,,,,,,,0.0-3.0-1.48,,[],,,,,527551,,100,spr-buttons,feedback,[],
914,the one true condition,2576,2_thick_1,False,A,,,,RAnND9hdveF9KAQce,0.0-3.0-0.49,5,[],I,,,"[{'role': 'speaker', 'text': 'their right foot is up and the other is on the floor', 'playerId': '34Br2mxZXWB7Z8veK'}]",530131,,101,spr-buttons,selection,[],
914,the one true condition,,,,,,,,,0.0-3.0-1.49,,[],,,,,531037,,102,spr-buttons,feedback,[],
914,the one true condition,8656,2_thin_1,False,K,,,,BP9jqaXgDcqoupu9X,0.0-3.0-0.50,6,[],L,,,"[{'role': 'speaker', 'text': 'looks like a woman sat on a seat, holding a triangle on the right side, facing the right side', 'playerId': 'MjgM5qp98eAX4zuZL'}]",539694,,103,spr-buttons,selection,[],
914,the one true condition,,,,,,,,,0.0-3.0-1.50,,[],,,,,540596,,104,spr-buttons,feedback,[],
914,the one true condition,4715,6_thin_6,False,A,,,,vb35TJcSHPpKxAzJo,0.0-3.0-0.51,5,[],I,,,"[{'role': 'speaker', 'text': 'About to throw a baseball one leg in front of the other to the right', 'playerId': 'FZwaqKfJFzuRG7WoT'}, {'role': 'speaker', 'text': 'Square head due to the angle', 'playerId': 'FZwaqKfJFzuRG7WoT'}]",545314,,105,spr-buttons,selection,[],
914,the one true condition,,,,,,,,,0.0-3.0-1.51,,[],,,,,546218,,106,spr-buttons,feedback,[],
914,the one true condition,3925,2_thick_6,False,J,,,,htub6itv8siAtQv22,0.0-3.0-0.52,4,[],G,,,"[{'role': 'speaker', 'text': 'straight flat edge left', 'playerId': 'HvkLtechHtpsjT9rJ'}]",550146,,107,spr-buttons,selection,[],
914,the one true condition,,,,,,,,,0.0-3.0-1.52,,[],,,,,551063,,108,spr-buttons,feedback,[],
914,the one true condition,7763,2_thin_1,False,K,,,,53uTmg2fquiNWgaK9,0.0-3.0-0.53,6,[],L,,,"[{'role': 'speaker', 'text': 'kneeling to the right', 'playerId': '8TCXBa5TcMjPDEKv6'}, {'role': 'speaker', 'text': 'diamond head in center', 'playerId': '8TCXBa5TcMjPDEKv6'}]",558829,,109,spr-buttons,selection,[],
914,the one true condition,,,,,,,,,0.0-3.0-1.53,,[],,,,,559732,,110,spr-buttons,feedback,[],
914,the one true condition,15249,2_thin_6,False,I,,,,HQCyESfw7Bwg5LM3Q,0.0-3.0-0.54,3,[],A,,,"[{'role': 'speaker', 'text': 'standing one left, other leg stretched to the right, head facing left with arms out to the left', 'playerId': 'hqLm2SFGSXpKH7smw'}]",574984,,111,spr-buttons,selection,[],
914,the one true condition,,,,,,,,,0.0-3.0-1.54,,[],,,,,575887,,112,spr-buttons,feedback,[],
914,the one true condition,17365,2_thick_1,True,H,,,,ReHEztHvdLg42SEGu,0.0-3.0-0.55,2,[],H,,,"[{'role': 'speaker', 'text': ""this one looks like it's sitting with its legs crossed off to the side"", 'playerId': 'dRD2qauYBz3is79vB'}, {'role': 'listener', 'text': 'Legs facing left or right', 'playerId': 'Pguc8sNiz63gYASuy'}, {'role': 'speaker', 'text': 'could be facing us, or facing away from us', 'playerId': 'dRD2qauYBz3is79vB'}, {'role': 'speaker', 'text': 'right!', 'playerId': 'dRD2qauYBz3is79vB'}]",593254,,113,spr-buttons,selection,[],
914,the one true condition,,,,,,,,,0.0-3.0-1.55,,[],,,,,594164,,114,spr-buttons,feedback,[],
914,the one true condition,3651,2_thin_1,True,I,,,,HQCyESfw7Bwg5LM3Q,0.0-3.0-0.56,5,[],I,,,"[{'role': 'speaker', 'text': 'person on one leg facing the left', 'playerId': 'ijqA9EF3MtMyzT6Ts'}]",597818,,115,spr-buttons,selection,[],
914,the one true condition,,,,,,,,,0.0-3.0-1.56,,[],,,,,598722,,116,spr-buttons,feedback,[],
914,the one true condition,5369,6_thin_1,True,E,,,,xSm8KNffud9xrhzXt,0.0-3.0-0.57,8,[],E,,,"[{'role': 'speaker', 'text': 'mountain with 2 peaks at bottom', 'playerId': 'pBWF9Yg8Gkrzgz6ZZ'}, {'role': 'speaker', 'text': 'square on top and then 2 triangles on very top', 'playerId': 'pBWF9Yg8Gkrzgz6ZZ'}]",604093,,117,spr-buttons,selection,[],
914,the one true condition,,,,,,,,,0.0-3.0-1.57,,[],,,,,605001,,118,spr-buttons,feedback,[],
914,the one true condition,5888,2_thin_1,True,C,,,,tac8f7dPdRJLBrSMh,0.0-3.0-0.58,1,[],C,,,"[{'role': 'speaker', 'text': 'I am falling backwards and slightly sideways and have both my arms up', 'playerId': '6WniY398mGwu8Gq6w'}]",610891,,119,spr-buttons,selection,[],
914,the one true condition,,,,,,,,,0.0-3.0-1.58,,[],,,,,611794,,120,spr-buttons,feedback,[],
914,the one true condition,5032,2_thin_6,True,D,,,,22dyGMRgestp8u5Lc,0.0-3.0-0.59,10,[],D,,,"[{'role': 'speaker', 'text': 'priest standing up, facing left', 'playerId': 'zbNWfn7CxR9SSytWA'}]",616829,,121,spr-buttons,selection,[],
914,the one true condition,,,,,,,,,0.0-3.0-1.59,,[],,,,,617733,,122,spr-buttons,feedback,[],
914,the one true condition,5218,2_thick_1,False,B,,,,pdC8wpWApxQxy97ei,0.0-3.0-0.60,8,[],E,,,"[{'role': 'speaker', 'text': 'mess of shapes', 'playerId': 'epgkyGmaqtcw2wDNc'}, {'role': 'speaker', 'text': 'small triangle at bottom left', 'playerId': 'epgkyGmaqtcw2wDNc'}, {'role': 'speaker', 'text': 'two triangles on top of base', 'playerId': 'epgkyGmaqtcw2wDNc'}]",622953,,123,spr-buttons,selection,[],
914,the one true condition,,,,,,,,,0.0-3.0-1.60,,[],,,,,623861,,124,spr-buttons,feedback,[],
914,the one true condition,5406,6_thin_6,False,L,,,,AdiA5JEZBKJ4F5r4i,0.0-3.0-0.61,7,[],K,,,"[{'role': 'speaker', 'text': 'Kneeling down slightly, facing right Arms pointing right', 'playerId': 'DnsCNZv6g42s9Ruci'}, {'role': 'speaker', 'text': 'Arms pointing right, kneeling down', 'playerId': 'DnsCNZv6g42s9Ruci'}]",629270,,125,spr-buttons,selection,[],
914,the one true condition,,,,,,,,,0.0-3.0-1.61,,[],,,,,630180,,126,spr-buttons,feedback,[],
914,the one true condition,2052,2_thick_1,True,I,,,,39vsQAqXRy5pjDrHx,0.0-3.0-0.62,5,[],I,,,"[{'role': 'speaker', 'text': 'skiing', 'playerId': 'oeYEj7xymG4SwYdqb'}]",632235,,127,spr-buttons,selection,[],
914,the one true condition,,,,,,,,,0.0-3.0-1.62,,[],,,,,633138,,128,spr-buttons,feedback,[],
914,the one true condition,6674,6_thick_1,False,G,,,,BPDJ8DfY2oJw6jGZn,0.0-3.0-0.63,6,[],L,,,"[{'role': 'speaker', 'text': 'one that is prostrating', 'playerId': 'FtpmWjRBf7ifYWhyL'}]",639814,,129,spr-buttons,selection,[],
914,the one true condition,,,,,,,,,0.0-3.0-1.63,,[],,,,,640719,,130,spr-buttons,feedback,[],
914,the one true condition,,,,,,,,,0.0-4.0,"{'other': 'N/A', 'errors': 'I had no issues.', 'length': 'The task felt like it was an appropriate length.', 'interface': 'N/A', 'understand': 'Most of the instructions were clear.'}",88018,,,,,728744,,131,survey-text,,,
914,the one true condition,,,,,,,,,0.0-5.0,0,8146,,"<h2>Many thanks for participating!</h2><p>We are generally interested in how people form conventions, such as shared 'nicknames' for images. Here, we are studying when these shared 'nicknames' are understandable to people who were not part of the group that created the nickname.</p><h1>Press continue to be redirected to Prolific. </h1>",,,736891,,132,html-button-response,,,
871,the one true condition,,,,,[],[],[],,0.0-0.0,,,,,True,,199,False,0,preload,,,
871,the one true condition,,,,,,,,,0.0-1.0,0,2858,," <center><img width=""300px"" src=""assets/stanford.png"" /></center><div id=""legal""></br>By answering the following questions, you are participating in a study being performed by cognitive scientists in the Stanford Department of Psychology. If you have questions about this research, please contact us at  <a href=""mailto://languagecoglab@gmail.com.""> languagecoglab@gmail.com</a>.You must be at least 18 years old to participate. Your participation in this research is voluntary. You may decline to answer any or all of the following questions. You may decline further participation, at any time, without adverse consequences. Your anonymity is assured; the researchers who have requested your participation will not receive any personal information about you. </div></br>",,,3059,,1,html-button-response,,,
871,the one true condition,,,,,,,,,0.0-2.0,0,108167,,"<h3>Please read these instructions carefully!</h3> </br><div id=""intro""> <p>In this task, you will see a <b>transcript of a conversation</b> some previous participants had where a <b>speaker identified one of the images to some listeners</b>.</p></br><center><img width=""600px"" src=""assets/demo.png"" /></center></br><p>Your goal is to <b>read the transcript</b> and <b>figure out which image</b> is being described! </p><p>You will <b>click the image</b> you think is being described, and then you will <b>find out if you were right</b>.<p><p>You will see <b>64 trials</b>. The image choices will stay the same, but the transcripts will come from different groups of people. Some of the transcripts may be much shorter or longer than others. Some of the descriptions may be hard to understand -- just take a guess if you are not sure.</p><p>You will get a bonus of <b>5 cents</b> for each image you get right! </p><p> <b>Note:</b> These descriptions came from real people and may contain inappropriate or offensive language. If you find a description inappropriate, please let us know via Prolific message or in the exit survey, so we can filter it out in the future.</p>",,,111227,,2,html-button-response,,,
871,the one true condition,12597,2_thick_1,False,E,,,,3LD6SkQZcPSYXHE9W,0.0-3.0-0.0,2,[],F,,,"[{'role': 'speaker', 'text': 'person looking down, sitting with knees bent upwards', 'playerId': 'LyQyeWbntRWk8ms69'}]",123833,,3,spr-buttons,selection,[],
871,the one true condition,,,,,,,,,0.0-3.0-1.0,,[],,,,,124741,,4,spr-buttons,feedback,[],
871,the one true condition,23784,2_thick_1,True,A,,,,XJWjbBteCLNDAtjaR,0.0-3.0-0.1,5,[],A,,,"[{'role': 'speaker', 'text': 'Bear with flag', 'playerId': 'REH8sf5fLW24xLJLe'}, {'role': 'speaker', 'text': 'Bear walking holding flag behind', 'playerId': 'REH8sf5fLW24xLJLe'}, {'role': 'listener', 'text': 'balancing on one leg', 'playerId': 'htbtimGcD7TSwfbR3'}]",148527,,5,spr-buttons,selection,[],
871,the one true condition,,,,,,,,,0.0-3.0-1.1,,[],,,,,149435,,6,spr-buttons,feedback,[],
871,the one true condition,11250,6_thick_1,True,H,,,,yuahmMCJwB5LLGYHB,0.0-3.0-0.2,7,[],H,,,"[{'role': 'speaker', 'text': 'it looks like a block for a body and tilted square for a head with no visible legs or arms', 'playerId': 'WLChjCXuws93NcRaQ'}]",160694,,7,spr-buttons,selection,[],
871,the one true condition,,,,,,,,,0.0-3.0-1.2,,[],,,,,161603,,8,spr-buttons,feedback,[],
871,the one true condition,12497,6_thin_1,True,G,,,,s3guGBwvgJRQvf9vF,0.0-3.0-0.3,8,[],G,,,"[{'role': 'speaker', 'text': 'a seal standing on its belly balancing two objects on its nose', 'playerId': 'xaG49m2wuoEz9eEcw'}]",174110,,9,spr-buttons,selection,[],
871,the one true condition,,,,,,,,,0.0-3.0-1.3,,[],,,,,175018,,10,spr-buttons,feedback,[],
871,the one true condition,9485,6_thick_6,False,K,,,,Cd78pF39goegJ3bsA,0.0-3.0-0.4,0,[],C,,,"[{'role': 'speaker', 'text': 'person kneeling, arms outstretched, facing the right', 'playerId': 'YA854Kq94JdiomiiP'}]",184512,,11,spr-buttons,selection,[],
871,the one true condition,,,,,,,,,0.0-3.0-1.4,,[],,,,,185419,,12,spr-buttons,feedback,[],
871,the one true condition,10604,2_thick_6,True,A,,,,cCSd3v7a6AH8fHsJE,0.0-3.0-0.5,5,[],A,,,"[{'role': 'speaker', 'text': 'monster', 'playerId': 'Dmv2wGZJEid5oXz3M'}]",196028,,13,spr-buttons,selection,[],
871,the one true condition,,,,,,,,,0.0-3.0-1.5,,[],,,,,196936,,14,spr-buttons,feedback,[],
871,the one true condition,6185,2_thin_6,True,E,,,,jogDrQkpEKFNKDtfk,0.0-3.0-0.6,3,[],E,,,"[{'role': 'speaker', 'text': 'two triangles on head', 'playerId': '5gj4Z6SqKe5ZjzcBf'}]",203128,,15,spr-buttons,selection,[],
871,the one true condition,,,,,,,,,0.0-3.0-1.6,,[],,,,,204036,,16,spr-buttons,feedback,[],
871,the one true condition,5267,6_thin_6,True,C,,,,78pdRXrYqcWKaNMsA,0.0-3.0-0.7,0,[],C,,,"[{'role': 'speaker', 'text': 'arms in air wide open', 'playerId': 'i7JHRaSobHRNAbiut'}]",209312,,17,spr-buttons,selection,[],
871,the one true condition,,,,,,,,,0.0-3.0-1.7,,[],,,,,210219,,18,spr-buttons,feedback,[],
871,the one true condition,14766,6_thick_1,True,I,,,,awMBFij9Yo8w2nA5K,0.0-3.0-0.8,9,[],I,,,"[{'role': 'speaker', 'text': 'It kinda looks like someone standing on one leg leaning to the left with one leg sticking out behind them Shape description to follow', 'playerId': 'tFxPDpxwB3TJg5B8c'}, {'role': 'listener', 'text': '2 triangles pointing left under ""the head""', 'playerId': '5gu2PxNMofbCYiqjN'}, {'role': 'speaker', 'text': 'The top is a diamond The diamond sits on top of one triangle, which itself sits on top of another triangle The ""leg"" kicking out behind is two triangles that attach at the points The ""leg"" standing is a rectangle on top of another triangle that points left', 'playerId': 'tFxPDpxwB3TJg5B8c'}, {'role': 'speaker', 'text': 'Yes, triangles pointing left Repi', 'playerId': 'tFxPDpxwB3TJg5B8c'}]",224996,,19,spr-buttons,selection,[],
871,the one true condition,,,,,,,,,0.0-3.0-1.8,,[],,,,,225905,,20,spr-buttons,feedback,[],
871,the one true condition,7849,2_thin_1,True,D,,,,53uTmg2fquiNWgaK9,0.0-3.0-0.9,6,[],D,,,"[{'role': 'speaker', 'text': 'standing', 'playerId': '8TCXBa5TcMjPDEKv6'}, {'role': 'speaker', 'text': 'holding something on left', 'playerId': '8TCXBa5TcMjPDEKv6'}]",233763,,21,spr-buttons,selection,[],
871,the one true condition,,,,,,,,,0.0-3.0-1.9,,[],,,,,234670,,22,spr-buttons,feedback,[],
871,the one true condition,7750,2_thin_1,True,E,,,,jogDrQkpEKFNKDtfk,0.0-3.0-0.10,3,[],E,,,"[{'role': 'speaker', 'text': 'two triangles top of head', 'playerId': 'y3TZknTa3KR3ZJ7uz'}]",242429,,23,spr-buttons,selection,[],
871,the one true condition,,,,,,,,,0.0-3.0-1.10,,[],,,,,243335,,24,spr-buttons,feedback,[],
871,the one true condition,17436,6_thin_1,False,L,,,,PppCQXs7SSfgS4Ygj,0.0-3.0-0.11,1,[],K,,,"[{'role': 'speaker', 'text': 'It looks like a woman wearing a gown, kneeling with her arms out to the right', 'playerId': '8pHKrs9sqvZcoues8'}]",260780,,25,spr-buttons,selection,[],
871,the one true condition,,,,,,,,,0.0-3.0-1.11,,[],,,,,261687,,26,spr-buttons,feedback,[],
871,the one true condition,6036,2_thin_1,True,F,,,,yY6t3ocwkwtpDQevb,0.0-3.0-0.12,2,[],F,,,"[{'role': 'speaker', 'text': 'sitting down', 'playerId': 'JEN6tGRhCXtAToQ5m'}, {'role': 'speaker', 'text': 'facing left', 'playerId': 'JEN6tGRhCXtAToQ5m'}]",267731,,27,spr-buttons,selection,[],
871,the one true condition,,,,,,,,,0.0-3.0-1.12,,[],,,,,268638,,28,spr-buttons,feedback,[],
871,the one true condition,27851,6_thin_1,False,B,,,,qnNnL5JsTPjnv3LW8,0.0-3.0-0.13,7,[],H,,,"[{'role': 'speaker', 'text': 'someone with two pointy shoulders facing towards us', 'playerId': 'GHPXGrJc4hqY2F4dv'}, {'role': 'speaker', 'text': 'two triangle shoulders', 'playerId': 'GHPXGrJc4hqY2F4dv'}, {'role': 'speaker', 'text': 'sitting', 'playerId': 'GHPXGrJc4hqY2F4dv'}]",296498,,29,spr-buttons,selection,[],
871,the one true condition,,,,,,,,,0.0-3.0-1.13,,[],,,,,297405,,30,spr-buttons,feedback,[],
871,the one true condition,15165,6_thin_1,False,D,,,,RBnjoHwwmyq7ojwD7,0.0-3.0-0.14,2,[],F,,,"[{'role': 'speaker', 'text': 'Someone praying but this time to the left', 'playerId': 'h7JqyA9bN55Ztvpnp'}, {'role': 'speaker', 'text': 'with their feet on the ground', 'playerId': 'h7JqyA9bN55Ztvpnp'}, {'role': 'speaker', 'text': 'The book is open', 'playerId': 'h7JqyA9bN55Ztvpnp'}]",312581,,31,spr-buttons,selection,[],
871,the one true condition,,,,,,,,,0.0-3.0-1.14,,[],,,,,313489,,32,spr-buttons,feedback,[],
871,the one true condition,12033,6_thick_6,False,L,,,,G74GhYGrsaxrsfYxf,0.0-3.0-0.15,1,[],K,,,"[{'role': 'speaker', 'text': 'praying person god top left', 'playerId': 'G7t4KfQdMhBApqMvT'}]",325531,,33,spr-buttons,selection,[],
871,the one true condition,,,,,,,,,0.0-3.0-1.15,,[],,,,,326439,,34,spr-buttons,feedback,[],
871,the one true condition,42701,6_thin_6,False,G,,,,7Djg3JQnctbBGbR6q,0.0-3.0-0.16,0,[],C,,,"[{'role': 'speaker', 'text': 'facing right, kneeling , long legs back, head bent back, two triangle arms directing traffic', 'playerId': 'SJZZc5m6KhXZwX2CE'}, {'role': 'speaker', 'text': ""Maybe they're flags"", 'playerId': 'SJZZc5m6KhXZwX2CE'}]",369150,,35,spr-buttons,selection,[],
871,the one true condition,,,,,,,,,0.0-3.0-1.16,,[],,,,,370057,,36,spr-buttons,feedback,[],
871,the one true condition,37350,6_thick_1,True,D,,,,xxh6EZ5ESMvTDboLx,0.0-3.0-0.17,6,[],D,,,"[{'role': 'speaker', 'text': ""arms to the left looks like it's holding something diamond head"", 'playerId': 'ETWC7GktmiQ8Fmtef'}]",407418,,37,spr-buttons,selection,[],
871,the one true condition,,,,,,,,,0.0-3.0-1.17,,[],,,,,408325,,38,spr-buttons,feedback,[],
871,the one true condition,23253,2_thick_6,True,G,,,,wPKShK8DJjFJDPPC2,0.0-3.0-0.18,8,[],G,,,"[{'role': 'speaker', 'text': 'Square shaped ear, dog shaped ear, bottom portion of body pointing left', 'playerId': '7873fQ46q5WbGoifc'}]",431585,,39,spr-buttons,selection,[],
871,the one true condition,,,,,,,,,0.0-3.0-1.18,,[],,,,,432493,,40,spr-buttons,feedback,[],
871,the one true condition,24168,6_thin_1,True,J,,,,vfBNc7APPeQqXwJep,0.0-3.0-0.19,10,[],J,,,"[{'role': 'speaker', 'text': 'square at the top with a square shape in the middle with a point on the right side', 'playerId': 'AbDh35xzSqzppDyPx'}]",456668,,41,spr-buttons,selection,[],
871,the one true condition,,,,,,,,,0.0-3.0-1.19,,[],,,,,457576,,42,spr-buttons,feedback,[],
871,the one true condition,13566,6_thick_6,False,F,,,,eYSrAKh9knoEHcLid,0.0-3.0-0.20,7,[],H,,,"[{'role': 'speaker', 'text': 'Sitting with back to tree', 'playerId': 'mMkdNCbkNosrcwQ6M'}]",471152,,43,spr-buttons,selection,[],
871,the one true condition,,,,,,,,,0.0-3.0-1.20,,[],,,,,472058,,44,spr-buttons,feedback,[],
871,the one true condition,9034,2_thick_6,True,G,,,,6cWDb4KB2JkQYoEn8,0.0-3.0-0.21,8,[],G,,,"[{'role': 'speaker', 'text': 'stretched dancer, big leg on left', 'playerId': 'hMtbTjcXoP7mcPqWm'}]",481102,,45,spr-buttons,selection,[],
871,the one true condition,,,,,,,,,0.0-3.0-1.21,,[],,,,,482010,,46,spr-buttons,feedback,[],
871,the one true condition,12716,2_thin_1,False,D,,,,boh4YsJCatyo5uyE8,0.0-3.0-0.22,10,[],J,,,"[{'role': 'speaker', 'text': 'Figure standing tall as if giving a lecture', 'playerId': '9paA9FyyYx2HEvQQD'}]",494736,,47,spr-buttons,selection,[],
871,the one true condition,,,,,,,,,0.0-3.0-1.22,,[],,,,,495644,,48,spr-buttons,feedback,[],
871,the one true condition,9849,2_thick_6,True,B,,,,znKKpRy5yMqbmRwJs,0.0-3.0-0.23,4,[],B,,,"[{'role': 'speaker', 'text': 'Abstract Box and triangle falling off on right', 'playerId': 'BvaPCcwnMZiHzHzcz'}, {'role': 'listener', 'text': 'toes on bottom left', 'playerId': 'mRs9KHcNtboF6jYk8'}, {'role': 'speaker', 'text': 'Yes, triangle to the far left', 'playerId': 'BvaPCcwnMZiHzHzcz'}]",505503,,49,spr-buttons,selection,[],
871,the one true condition,,,,,,,,,0.0-3.0-1.23,,[],,,,,506411,,50,spr-buttons,feedback,[],
871,the one true condition,10334,6_thick_1,False,K,,,,APb85jFMnKTvtxB9Q,0.0-3.0-0.24,4,[],B,,,"[{'role': 'speaker', 'text': 'Kneeling Pointing to the right Upward pointing skirt', 'playerId': '8EKHajAZMvmFinexJ'}]",516754,,51,spr-buttons,selection,[],
871,the one true condition,,,,,,,,,0.0-3.0-1.24,,[],,,,,517663,,52,spr-buttons,feedback,[],
871,the one true condition,12848,2_thin_6,False,B,,,,nK7PQshcrKCYzjoeX,0.0-3.0-0.25,5,[],A,,,"[{'role': 'speaker', 'text': 'mouse', 'playerId': 'LTX8PWemF9DjKLNcW'}]",530520,,53,spr-buttons,selection,[],
871,the one true condition,,,,,,,,,0.0-3.0-1.25,,[],,,,,531425,,54,spr-buttons,feedback,[],
871,the one true condition,7568,6_thin_6,True,F,,,,yf4vLYMpH9j84z98K,0.0-3.0-0.26,2,[],F,,,"[{'role': 'speaker', 'text': 'sitting down facing to the left', 'playerId': 'vRLBXj64qxHFQNKc3'}]",539003,,55,spr-buttons,selection,[],
871,the one true condition,,,,,,,,,0.0-3.0-1.26,,[],,,,,539906,,56,spr-buttons,feedback,[],
871,the one true condition,9957,2_thin_6,False,B,,,,G5HKftuSE5K4WT9bH,0.0-3.0-0.27,8,[],G,,,"[{'role': 'speaker', 'text': 'Flying bird, triangle arms', 'playerId': 'CbucCohak2hiJzSa6'}]",549871,,57,spr-buttons,selection,[],
871,the one true condition,,,,,,,,,0.0-3.0-1.27,,[],,,,,550779,,58,spr-buttons,feedback,[],
871,the one true condition,29001,2_thick_1,True,H,,,,v38FZLkyFdEaiDQeh,0.0-3.0-0.28,7,[],H,,,"[{'role': 'speaker', 'text': 'this looks like a person who is seated, kind of like you are looking at someone with legs crossed over one another in front of them, but you are not seeing them head-on, instead you see their one crossed knee to the right of the screen', 'playerId': 'CJTaDhWCSTLmWfMoR'}]",579788,,59,spr-buttons,selection,[],
871,the one true condition,,,,,,,,,0.0-3.0-1.28,,[],,,,,580697,,60,spr-buttons,feedback,[],
871,the one true condition,39683,6_thin_6,False,G,,,,3zuSR5MLLHFo57ngd,0.0-3.0-0.29,4,[],B,,,"[{'role': 'speaker', 'text': 'the diamond is slanted to the left', 'playerId': 'js59gnvFHgHLEnkuL'}, {'role': 'speaker', 'text': 'there arm is raised up on the right side', 'playerId': 'js59gnvFHgHLEnkuL'}, {'role': 'speaker', 'text': 'and right leg is on the right', 'playerId': 'js59gnvFHgHLEnkuL'}, {'role': 'speaker', 'text': 'the left side is flat', 'playerId': 'js59gnvFHgHLEnkuL'}, {'role': 'speaker', 'text': 'the right side is flat like a rectangle', 'playerId': 'js59gnvFHgHLEnkuL'}, {'role': 'speaker', 'text': 'bottom right side is shaped like a rectangle', 'playerId': 'js59gnvFHgHLEnkuL'}]",620391,,61,spr-buttons,selection,[],
871,the one true condition,,,,,,,,,0.0-3.0-1.29,,[],,,,,621299,,62,spr-buttons,feedback,[],
871,the one true condition,8851,6_thick_6,True,C,,,,eYSrAKh9knoEHcLid,0.0-3.0-0.30,0,[],C,,,"[{'role': 'speaker', 'text': ""Ghost - y'all are doing great"", 'playerId': 'mMkdNCbkNosrcwQ6M'}]",630159,,63,spr-buttons,selection,[],
871,the one true condition,,,,,,,,,0.0-3.0-1.30,,[],,,,,631062,,64,spr-buttons,feedback,[],
871,the one true condition,6684,6_thin_1,False,F,,,,FEPXqBHpf4Q5CfCju,0.0-3.0-0.31,7,[],H,,,"[{'role': 'speaker', 'text': 'sitting down with hands below the legs', 'playerId': '6Kav3RXmngLqqGgzb'}]",637756,,65,spr-buttons,selection,[],
871,the one true condition,,,,,,,,,0.0-3.0-1.31,,[],,,,,638663,,66,spr-buttons,feedback,[],
871,the one true condition,7785,6_thick_1,True,I,,,,ASJgHR2N8wCgN32cu,0.0-3.0-0.32,9,[],I,,,"[{'role': 'speaker', 'text': 'A person standing on one leg, the other leg is sticking out to the right', 'playerId': 'YT2Nq7XZoMqoZoRX9'}]",646458,,67,spr-buttons,selection,[],
871,the one true condition,,,,,,,,,0.0-3.0-1.32,,[],,,,,647366,,68,spr-buttons,feedback,[],
871,the one true condition,11381,2_thick_1,False,F,,,,JCq6bt8bjpBggFPyM,0.0-3.0-0.33,4,[],B,,,"[{'role': 'speaker', 'text': 'looks like a person sitting down contemplating', 'playerId': '7KhipcCnuF2SDDKvi'}, {'role': 'speaker', 'text': 'head on top right', 'playerId': '7KhipcCnuF2SDDKvi'}, {'role': 'speaker', 'text': 'legs on bottom left', 'playerId': '7KhipcCnuF2SDDKvi'}, {'role': 'speaker', 'text': 'with knees bent', 'playerId': '7KhipcCnuF2SDDKvi'}, {'role': 'speaker', 'text': 'butt on floor on bottom right', 'playerId': '7KhipcCnuF2SDDKvi'}]",658757,,69,spr-buttons,selection,[],
871,the one true condition,,,,,,,,,0.0-3.0-1.33,,[],,,,,659664,,70,spr-buttons,feedback,[],
871,the one true condition,9219,6_thick_6,False,C,,,,J5gYJw8tzaF3TwhaC,0.0-3.0-0.34,1,[],K,,,"[{'role': 'speaker', 'text': 'candlestick from beauty and the beast or person leaning forward, arms up', 'playerId': 'Yhp6ZinpdiS5TfpoA'}]",668891,,71,spr-buttons,selection,[],
871,the one true condition,,,,,,,,,0.0-3.0-1.34,,[],,,,,669799,,72,spr-buttons,feedback,[],
871,the one true condition,6867,6_thick_1,True,H,,,,Cd78pF39goegJ3bsA,0.0-3.0-0.35,7,[],H,,,"[{'role': 'speaker', 'text': 'a baby swaddled, no arms', 'playerId': 'YA854Kq94JdiomiiP'}]",676675,,73,spr-buttons,selection,[],
871,the one true condition,,,,,,,,,0.0-3.0-1.35,,[],,,,,677583,,74,spr-buttons,feedback,[],
871,the one true condition,13916,6_thick_1,False,L,,,,QkKavPsKXNH5uJzrs,0.0-3.0-0.36,8,[],G,,,"[{'role': 'speaker', 'text': 'this one looks like a person about to keel while holding their arms to the right', 'playerId': 'ySkkTvw6MWq2jN8sB'}, {'role': 'speaker', 'text': 'the bottom ""legs"" are together and bent to the right', 'playerId': 'ySkkTvw6MWq2jN8sB'}, {'role': 'speaker', 'text': 'the back is straight', 'playerId': 'ySkkTvw6MWq2jN8sB'}, {'role': 'listener', 'text': 'how about the arms', 'playerId': '45SedEFMPvXQwJr5u'}, {'role': 'speaker', 'text': 'the arms fe right', 'playerId': 'ySkkTvw6MWq2jN8sB'}]",691508,,75,spr-buttons,selection,[],
871,the one true condition,,,,,,,,,0.0-3.0-1.36,,[],,,,,692415,,76,spr-buttons,feedback,[],
871,the one true condition,17583,2_thin_1,False,C,,,,BP9jqaXgDcqoupu9X,0.0-3.0-0.37,9,[],I,,,"[{'role': 'speaker', 'text': 'the image has a rhombus, where the point goes diagonally from the bottom left to the top right there are two arm looking shapes coming from the top left side of the rhombus, with a diamond square shaped head coming from the rhombus', 'playerId': 'MjgM5qp98eAX4zuZL'}]",710008,,77,spr-buttons,selection,[],
871,the one true condition,,,,,,,,,0.0-3.0-1.37,,[],,,,,710916,,78,spr-buttons,feedback,[],
871,the one true condition,18653,2_thin_1,True,G,,,,QTLcapnjShjWX3s4t,0.0-3.0-0.38,8,[],G,,,"[{'role': 'speaker', 'text': 'on your left square on a tilted top and right two triangles', 'playerId': '7ycbvgZt9bc9A7AJj'}]",729576,,79,spr-buttons,selection,[],
871,the one true condition,,,,,,,,,0.0-3.0-1.38,,[],,,,,730484,,80,spr-buttons,feedback,[],
871,the one true condition,8215,6_thick_6,False,F,,,,yuahmMCJwB5LLGYHB,0.0-3.0-0.39,3,[],E,,,"[{'role': 'speaker', 'text': 'situps', 'playerId': 'WLChjCXuws93NcRaQ'}, {'role': 'listener', 'text': ""that's a bunny to the left"", 'playerId': '2bFb6556mpGYTXBMX'}, {'role': 'listener', 'text': 'lefty', 'playerId': '2bFb6556mpGYTXBMX'}, {'role': 'listener', 'text': 'left*', 'playerId': '2bFb6556mpGYTXBMX'}]",738709,,81,spr-buttons,selection,[],
871,the one true condition,,,,,,,,,0.0-3.0-1.39,,[],,,,,739616,,82,spr-buttons,feedback,[],
871,the one true condition,10534,2_thick_1,False,J,,,,voSMQaG9H4nC4jy32,0.0-3.0-0.40,11,[],L,,,"[{'role': 'speaker', 'text': 'this one is the squattiest one', 'playerId': 'xCczn7ZDHtYRWQE6W'}]",750159,,83,spr-buttons,selection,[],
871,the one true condition,,,,,,,,,0.0-3.0-1.40,,[],,,,,751066,,84,spr-buttons,feedback,[],
871,the one true condition,7667,2_thin_6,False,F,,,,22dyGMRgestp8u5Lc,0.0-3.0-0.41,8,[],G,,,"[{'role': 'speaker', 'text': 'relaxing in park', 'playerId': 'zbNWfn7CxR9SSytWA'}]",758743,,85,spr-buttons,selection,[],
871,the one true condition,,,,,,,,,0.0-3.0-1.41,,[],,,,,759650,,86,spr-buttons,feedback,[],
871,the one true condition,2086,2_thick_6,True,C,,,,8rdFCKG2CvuTrLnAM,0.0-3.0-0.42,0,[],C,,,"[{'role': 'speaker', 'text': 'goalkeeper', 'playerId': 'sXCiFPWdDG3oRZb4u'}]",761744,,87,spr-buttons,selection,[],
871,the one true condition,,,,,,,,,0.0-3.0-1.42,,[],,,,,762652,,88,spr-buttons,feedback,[],
871,the one true condition,11457,2_thin_1,False,G,,,,xPDpppkjxby6SWWQE,0.0-3.0-0.43,10,[],J,,,"[{'role': 'speaker', 'text': 'it kinda looks like a deformed high heel, very bottom heavy with a small triangle representing the heel of the shoe', 'playerId': 'XRm49YNiQZ82knkDb'}]",774110,,89,spr-buttons,selection,[],
871,the one true condition,,,,,,,,,0.0-3.0-1.43,,[],,,,,775018,,90,spr-buttons,feedback,[],
871,the one true condition,1765,2_thin_6,True,E,,,,mfHF5dsRBFvoJKmv7,0.0-3.0-0.44,3,[],E,,,"[{'role': 'speaker', 'text': 'rabbit', 'playerId': 'RBMaXWoaFLp3JrbMZ'}]",776793,,91,spr-buttons,selection,[],
871,the one true condition,,,,,,,,,0.0-3.0-1.44,,[],,,,,777701,,92,spr-buttons,feedback,[],
871,the one true condition,19242,6_thin_6,False,F,,,,78pdRXrYqcWKaNMsA,0.0-3.0-0.45,5,[],A,,,"[{'role': 'speaker', 'text': 'sitting left legs drawn up', 'playerId': 'i7JHRaSobHRNAbiut'}]",796944,,93,spr-buttons,selection,[],
871,the one true condition,,,,,,,,,0.0-3.0-1.45,,[],,,,,797851,,94,spr-buttons,feedback,[],
871,the one true condition,5601,6_thin_1,True,I,,,,hycXgPznSi3hzjcfX,0.0-3.0-0.46,9,[],I,,,"[{'role': 'speaker', 'text': 'Standing with one foot in air', 'playerId': 'M6n7xmPC97pxnhAah'}, {'role': 'speaker', 'text': 'Two triangles makes up arms', 'playerId': 'M6n7xmPC97pxnhAah'}]",803459,,95,spr-buttons,selection,[],
871,the one true condition,,,,,,,,,0.0-3.0-1.46,,[],,,,,804364,,96,spr-buttons,feedback,[],
871,the one true condition,20072,2_thin_6,True,L,,,,3yh8YmunGyJ3aQmWd,0.0-3.0-0.47,11,[],L,,,"[{'role': 'speaker', 'text': 'facing right, legs bent, reading a book', 'playerId': 'jYjCgmiAtd4SvCC8t'}]",824445,,97,spr-buttons,selection,[],
871,the one true condition,,,,,,,,,0.0-3.0-1.47,,[],,,,,825351,,98,spr-buttons,feedback,[],
871,the one true condition,18869,6_thick_1,True,C,,,,FQmZmJts5MsgBFKCs,0.0-3.0-0.48,0,[],C,,,"[{'role': 'speaker', 'text': 'figure catching a ball to left hand side', 'playerId': '4bzGCtgSy2NNk9Q5m'}, {'role': 'listener', 'text': 'both arms pointed up on either side', 'playerId': 'qEh6S5ymRBnq9Sb3N'}, {'role': 'speaker', 'text': 'no legs visible only upper body and outstretched arms', 'playerId': '4bzGCtgSy2NNk9Q5m'}]",844228,,99,spr-buttons,selection,[],
871,the one true condition,,,,,,,,,0.0-3.0-1.48,,[],,,,,845135,,100,spr-buttons,feedback,[],
871,the one true condition,1284,6_thin_6,True,E,,,,hycXgPznSi3hzjcfX,0.0-3.0-0.49,3,[],E,,,"[{'role': 'speaker', 'text': 'Rabbit', 'playerId': 'TWXWnAChyvw94LtaH'}]",846429,,101,spr-buttons,selection,[],
871,the one true condition,,,,,,,,,0.0-3.0-1.49,,[],,,,,847338,,102,spr-buttons,feedback,[],
871,the one true condition,32242,6_thick_6,True,D,,,,8gqBudziFTfxbfF4b,0.0-3.0-0.50,6,[],D,,,"[{'role': 'speaker', 'text': 'man facing left, holding hat, waiting for coin', 'playerId': '7TGyFjStsSDQvdLYa'}]",879581,,103,spr-buttons,selection,[],
871,the one true condition,,,,,,,,,0.0-3.0-1.50,,[],,,,,880489,,104,spr-buttons,feedback,[],
871,the one true condition,12015,2_thick_6,False,G,,,,3LD6SkQZcPSYXHE9W,0.0-3.0-0.51,7,[],H,,,"[{'role': 'speaker', 'text': 'mouse with knees bent', 'playerId': 'LyQyeWbntRWk8ms69'}]",892514,,105,spr-buttons,selection,[],
871,the one true condition,,,,,,,,,0.0-3.0-1.51,,[],,,,,893420,,106,spr-buttons,feedback,[],
871,the one true condition,6683,6_thin_6,False,A,,,,vb35TJcSHPpKxAzJo,0.0-3.0-0.52,9,[],I,,,"[{'role': 'speaker', 'text': 'About to throw a baseball one leg in front of the other to the right', 'playerId': 'FZwaqKfJFzuRG7WoT'}, {'role': 'speaker', 'text': 'Square head due to the angle', 'playerId': 'FZwaqKfJFzuRG7WoT'}]",900113,,107,spr-buttons,selection,[],
871,the one true condition,,,,,,,,,0.0-3.0-1.52,,[],,,,,901021,,108,spr-buttons,feedback,[],
871,the one true condition,17967,2_thick_1,True,H,,,,6cWDb4KB2JkQYoEn8,0.0-3.0-0.53,7,[],H,,,"[{'role': 'speaker', 'text': 'quietly sitting figure, knees bent to right, no feet or hands visible', 'playerId': 'hMtbTjcXoP7mcPqWm'}]",918997,,109,spr-buttons,selection,[],
871,the one true condition,,,,,,,,,0.0-3.0-1.53,,[],,,,,919904,,110,spr-buttons,feedback,[],
871,the one true condition,5517,2_thin_6,True,C,,,,bio32nY9h7AZxfcX3,0.0-3.0-0.54,0,[],C,,,"[{'role': 'speaker', 'text': 'flying', 'playerId': 'Cgsh6SKbwvHuM8nWk'}]",925431,,111,spr-buttons,selection,[],
871,the one true condition,,,,,,,,,0.0-3.0-1.54,,[],,,,,926339,,112,spr-buttons,feedback,[],
871,the one true condition,7000,6_thin_1,False,J,,,,xSm8KNffud9xrhzXt,0.0-3.0-0.55,6,[],D,,,"[{'role': 'speaker', 'text': 'diamond shape on very top centered', 'playerId': 'pBWF9Yg8Gkrzgz6ZZ'}, {'role': 'speaker', 'text': 'flat on top and straight on one side', 'playerId': 'pBWF9Yg8Gkrzgz6ZZ'}]",933348,,113,spr-buttons,selection,[],
871,the one true condition,,,,,,,,,0.0-3.0-1.55,,[],,,,,934256,,114,spr-buttons,feedback,[],
871,the one true condition,9534,2_thin_1,True,F,,,,dL448N8edL6crs7PZ,0.0-3.0-0.56,2,[],F,,,"[{'role': 'speaker', 'text': 'Reclining sitting position facing the left with knees raised up and feet on the floor', 'playerId': 'MoZuftrvPB2dHtT5i'}]",943798,,115,spr-buttons,selection,[],
871,the one true condition,,,,,,,,,0.0-3.0-1.56,,[],,,,,944705,,116,spr-buttons,feedback,[],
871,the one true condition,8669,6_thin_6,False,G,,,,Nh8nE8Qa4C3BkbhD6,0.0-3.0-0.57,7,[],H,,,"[{'role': 'speaker', 'text': 'weird one with arms behind', 'playerId': '5JEmHBEF2C5GGGZkJ'}]",953382,,117,spr-buttons,selection,[],
871,the one true condition,,,,,,,,,0.0-3.0-1.57,,[],,,,,954290,,118,spr-buttons,feedback,[],
871,the one true condition,14633,6_thick_6,False,F,,,,iHNnNCnSAx2TYjDhf,0.0-3.0-0.58,3,[],E,,,"[{'role': 'speaker', 'text': '6', 'playerId': '2ub9Fg5YrCita2F2y'}]",968932,,119,spr-buttons,selection,[],
871,the one true condition,,,,,,,,,0.0-3.0-1.58,,[],,,,,969840,,120,spr-buttons,feedback,[],
871,the one true condition,9983,2_thick_6,False,G,,,,iccbYJSQjLTn6eLYG,0.0-3.0-0.59,9,[],I,,,"[{'role': 'speaker', 'text': 'horse', 'playerId': '5Hf9XL6EddeSLkxR5'}]",979832,,121,spr-buttons,selection,[],
871,the one true condition,,,,,,,,,0.0-3.0-1.59,,[],,,,,980739,,122,spr-buttons,feedback,[],
871,the one true condition,4219,2_thin_6,True,J,,,,mfHF5dsRBFvoJKmv7,0.0-3.0-0.60,10,[],J,,,"[{'role': 'speaker', 'text': 'short', 'playerId': 'RBMaXWoaFLp3JrbMZ'}]",984966,,123,spr-buttons,selection,[],
871,the one true condition,,,,,,,,,0.0-3.0-1.60,,[],,,,,985873,,124,spr-buttons,feedback,[],
871,the one true condition,8900,2_thick_6,False,L,,,,3fMcwrqnhrEwubixY,0.0-3.0-0.61,4,[],B,,,"[{'role': 'speaker', 'text': 'facing right knees bent', 'playerId': 'eMvgBjGsYxCbZWwkM'}]",994783,,125,spr-buttons,selection,[],
871,the one true condition,,,,,,,,,0.0-3.0-1.61,,[],,,,,995690,,126,spr-buttons,feedback,[],
871,the one true condition,11584,2_thick_1,True,F,,,,NdrBpKKdJinL4P9pF,0.0-3.0-0.62,2,[],F,,,"[{'role': 'speaker', 'text': 'square on top of a turtle shell like shape and a rectangle on the bottom', 'playerId': 'fzPLirZgYXeqXcey7'}, {'role': 'speaker', 'text': 'looks like someone sitting in a bean bag chair', 'playerId': 'fzPLirZgYXeqXcey7'}]",1007283,,127,spr-buttons,selection,[],
871,the one true condition,,,,,,,,,0.0-3.0-1.62,,[],,,,,1008191,,128,spr-buttons,feedback,[],
871,the one true condition,9549,2_thick_1,True,A,,,,XaYo7mGCsyJKW3w4Z,0.0-3.0-0.63,5,[],A,,,"[{'role': 'speaker', 'text': 'looks like a man with a backpack', 'playerId': 'NYD7GMoHm3TagmyTN'}, {'role': 'speaker', 'text': 'leg in the air', 'playerId': 'NYD7GMoHm3TagmyTN'}, {'role': 'speaker', 'text': 'backpack is a diamond shape', 'playerId': 'NYD7GMoHm3TagmyTN'}]",1017750,,129,spr-buttons,selection,[],
871,the one true condition,,,,,,,,,0.0-3.0-1.63,,[],,,,,1018658,,130,spr-buttons,feedback,[],
871,the one true condition,,,,,,,,,0.0-4.0,"{'other': '', 'errors': 'no', 'length': 'all fine', 'interface': '', 'understand': 'all clear'}",23023,,,,,1041693,,131,survey-text,,,
871,the one true condition,,,,,,,,,0.0-5.0,0,2324,,"<h2>Many thanks for participating!</h2><p>We are generally interested in how people form conventions, such as shared 'nicknames' for images. Here, we are studying when these shared 'nicknames' are understandable to people who were not part of the group that created the nickname.</p><h1>Press continue to be redirected to Prolific. </h1>",,,1044018,,132,html-button-response,,,
904,the one true condition,,,,,[],[],[],,0.0-0.0,,,,,True,,97,False,0,preload,,,
904,the one true condition,,,,,,,,,0.0-1.0,0,5558,," <center><img width=""300px"" src=""assets/stanford.png"" /></center><div id=""legal""></br>By answering the following questions, you are participating in a study being performed by cognitive scientists in the Stanford Department of Psychology. If you have questions about this research, please contact us at  <a href=""mailto://languagecoglab@gmail.com.""> languagecoglab@gmail.com</a>.You must be at least 18 years old to participate. Your participation in this research is voluntary. You may decline to answer any or all of the following questions. You may decline further participation, at any time, without adverse consequences. Your anonymity is assured; the researchers who have requested your participation will not receive any personal information about you. </div></br>",,,5656,,1,html-button-response,,,
904,the one true condition,,,,,,,,,0.0-2.0,0,50175,,"<h3>Please read these instructions carefully!</h3> </br><div id=""intro""> <p>In this task, you will see a <b>transcript of a conversation</b> some previous participants had where a <b>speaker identified one of the images to some listeners</b>.</p></br><center><img width=""600px"" src=""assets/demo.png"" /></center></br><p>Your goal is to <b>read the transcript</b> and <b>figure out which image</b> is being described! </p><p>You will <b>click the image</b> you think is being described, and then you will <b>find out if you were right</b>.<p><p>You will see <b>64 trials</b>. The image choices will stay the same, but the transcripts will come from different groups of people. Some of the transcripts may be much shorter or longer than others. Some of the descriptions may be hard to understand -- just take a guess if you are not sure.</p><p>You will get a bonus of <b>5 cents</b> for each image you get right! </p><p> <b>Note:</b> These descriptions came from real people and may contain inappropriate or offensive language. If you find a description inappropriate, please let us know via Prolific message or in the exit survey, so we can filter it out in the future.</p>",,,55828,,2,html-button-response,,,
904,the one true condition,9995,2_thick_1,True,H,,,,htub6itv8siAtQv22,0.0-3.0-0.0,4,[],H,,,"[{'role': 'speaker', 'text': 'Looks a bit like the letter i the diamond is at the top in the center, the body is mainly straight apart from the bottom where it goes to the right', 'playerId': 'HvkLtechHtpsjT9rJ'}]",65824,,3,spr-buttons,selection,[],
904,the one true condition,,,,,,,,,0.0-3.0-1.0,,[],,,,,66731,,4,spr-buttons,feedback,[],
904,the one true condition,7528,6_thin_6,False,K,,,,vHHRDD5s36Ya2xGvS,0.0-3.0-0.1,6,[],L,,,"[{'role': 'speaker', 'text': 'Praying', 'playerId': 'R7ioWHKEJCBidQWRz'}]",74260,,5,spr-buttons,selection,[],
904,the one true condition,,,,,,,,,0.0-3.0-1.1,,[],,,,,75164,,6,spr-buttons,feedback,[],
904,the one true condition,8263,2_thin_1,True,F,,,,22dyGMRgestp8u5Lc,0.0-3.0-0.2,0,[],F,,,"[{'role': 'speaker', 'text': 'Guy relaxing in the park facing left arms to side (not visible) knees up', 'playerId': 'aSeEmufWmsbLn7YEQ'}]",83436,,7,spr-buttons,selection,[],
904,the one true condition,,,,,,,,,0.0-3.0-1.2,,[],,,,,84340,,8,spr-buttons,feedback,[],
904,the one true condition,65483,6_thin_6,False,B,,,,4jb479ZcxyntN9bzn,0.0-3.0-0.3,11,[],A,,,"[{'role': 'speaker', 'text': 'funny hat on back of head', 'playerId': 'YbvfqqB8H6sm4ud2t'}, {'role': 'speaker', 'text': 'upside down', 'playerId': 'YbvfqqB8H6sm4ud2t'}, {'role': 'speaker', 'text': 'triangular arms', 'playerId': 'YbvfqqB8H6sm4ud2t'}, {'role': 'speaker', 'text': 'square head', 'playerId': 'YbvfqqB8H6sm4ud2t'}, {'role': 'speaker', 'text': 'can see ankles', 'playerId': 'YbvfqqB8H6sm4ud2t'}, {'role': 'speaker', 'text': 'facing right', 'playerId': 'YbvfqqB8H6sm4ud2t'}]",149821,,9,spr-buttons,selection,[],
904,the one true condition,,,,,,,,,0.0-3.0-1.3,,[],,,,,150724,,10,spr-buttons,feedback,[],
904,the one true condition,17940,2_thin_6,True,D,,,,bio32nY9h7AZxfcX3,0.0-3.0-0.4,3,[],D,,,"[{'role': 'speaker', 'text': 'robe one with arms left', 'playerId': 'Cgsh6SKbwvHuM8nWk'}]",168669,,11,spr-buttons,selection,[],
904,the one true condition,,,,,,,,,0.0-3.0-1.4,,[],,,,,169572,,12,spr-buttons,feedback,[],
904,the one true condition,10237,2_thin_1,True,L,,,,c3627RTtA7SfM2g6N,0.0-3.0-0.5,6,[],L,,,"[{'role': 'speaker', 'text': 'Guy kneeling and holding out a plate', 'playerId': '9DKRanTDSC4cchEY6'}]",179829,,13,spr-buttons,selection,[],
904,the one true condition,,,,,,,,,0.0-3.0-1.5,,[],,,,,180734,,14,spr-buttons,feedback,[],
904,the one true condition,2234,6_thin_6,True,C,,,,GfdodQMJHhNodveqQ,0.0-3.0-0.6,9,[],C,,,"[{'role': 'speaker', 'text': 'falling to the left with arms up in the air', 'playerId': 'mJoMeCNLNBvXsdrNr'}]",182973,,15,spr-buttons,selection,[],
904,the one true condition,,,,,,,,,0.0-3.0-1.6,,[],,,,,183876,,16,spr-buttons,feedback,[],
904,the one true condition,19640,2_thin_6,False,A,,,,5pxA8N5MZQKx6CQNK,0.0-3.0-0.7,2,[],J,,,"[{'role': 'speaker', 'text': 'flag', 'playerId': 'wS6Wk6zib8zYhzcim'}]",203517,,17,spr-buttons,selection,[],
904,the one true condition,,,,,,,,,0.0-3.0-1.7,,[],,,,,204421,,18,spr-buttons,feedback,[],
904,the one true condition,6739,6_thin_6,True,D,,,,MR4xnrE8c4oCHmZX2,0.0-3.0-0.8,3,[],D,,,"[{'role': 'speaker', 'text': 'stood facing left', 'playerId': 'muoR38p6HFjao4cKu'}, {'role': 'speaker', 'text': 'reading', 'playerId': 'muoR38p6HFjao4cKu'}]",211162,,19,spr-buttons,selection,[],
904,the one true condition,,,,,,,,,0.0-3.0-1.8,,[],,,,,212065,,20,spr-buttons,feedback,[],
904,the one true condition,4698,6_thick_1,True,I,,,,eYSrAKh9knoEHcLid,0.0-3.0-0.9,10,[],I,,,"[{'role': 'speaker', 'text': 'It looks like a person standing on one leg, their other leg is pointing out in the air to the right Their two arms are pointing left', 'playerId': 'mMkdNCbkNosrcwQ6M'}]",216771,,21,spr-buttons,selection,[],
904,the one true condition,,,,,,,,,0.0-3.0-1.9,,[],,,,,217674,,22,spr-buttons,feedback,[],
904,the one true condition,10567,2_thick_1,True,G,,,,MM87KaCiwe9vRcvbi,0.0-3.0-0.10,1,[],G,,,"[{'role': 'speaker', 'text': 'Looks like a person with a dress on that has a train, the train dragging on the left side', 'playerId': '3DR3LKCnkxsbbDYdm'}, {'role': 'speaker', 'text': 'head would be looking up', 'playerId': '3DR3LKCnkxsbbDYdm'}]",228258,,23,spr-buttons,selection,[],
904,the one true condition,,,,,,,,,0.0-3.0-1.10,,[],,,,,229161,,24,spr-buttons,feedback,[],
904,the one true condition,11164,6_thick_1,True,A,,,,G74GhYGrsaxrsfYxf,0.0-3.0-0.11,11,[],A,,,"[{'role': 'speaker', 'text': ""looks like a animal with a square on the right side of his neck It's head is angled down to the left"", 'playerId': 'G7t4KfQdMhBApqMvT'}, {'role': 'speaker', 'text': 'the square is on right side of his neck close to its shoulder', 'playerId': 'G7t4KfQdMhBApqMvT'}, {'role': 'speaker', 'text': 'it has one leg of the floor and the other is on the floor', 'playerId': 'G7t4KfQdMhBApqMvT'}]",240330,,25,spr-buttons,selection,[],
904,the one true condition,,,,,,,,,0.0-3.0-1.11,,[],,,,,241234,,26,spr-buttons,feedback,[],
904,the one true condition,9128,2_thick_6,False,K,,,,p8CZhTq5mEiuypAfk,0.0-3.0-0.12,6,[],L,,,"[{'role': 'speaker', 'text': 'plate', 'playerId': 'mGtkMxGiXXs6j2cm3'}]",250370,,27,spr-buttons,selection,[],
904,the one true condition,,,,,,,,,0.0-3.0-1.12,,[],,,,,251274,,28,spr-buttons,feedback,[],
904,the one true condition,9469,2_thick_1,True,E,,,,TswNa6hfiGwkWHMgB,0.0-3.0-0.13,8,[],E,,,"[{'role': 'speaker', 'text': 'girl with boy sitting down with knees up', 'playerId': 'BCjiqev2Kt7Lze3nQ'}, {'role': 'speaker', 'text': 'girl with bow, sitting down with knees up', 'playerId': 'BCjiqev2Kt7Lze3nQ'}]",260762,,29,spr-buttons,selection,[],
904,the one true condition,,,,,,,,,0.0-3.0-1.13,,[],,,,,261665,,30,spr-buttons,feedback,[],
904,the one true condition,10096,2_thin_6,True,D,,,,53uTmg2fquiNWgaK9,0.0-3.0-0.14,3,[],D,,,"[{'role': 'speaker', 'text': 'kneeling to left with bowl', 'playerId': '93Xm8bMcDzKRcrDhL'}]",271766,,31,spr-buttons,selection,[],
904,the one true condition,,,,,,,,,0.0-3.0-1.14,,[],,,,,272670,,32,spr-buttons,feedback,[],
904,the one true condition,9599,2_thick_6,True,L,,,,kAkYw4pRQAqy6y7CL,0.0-3.0-0.15,6,[],L,,,"[{'role': 'speaker', 'text': 'Zig zag legs', 'playerId': 'hecS9uStXR3oAiNnb'}]",282278,,33,spr-buttons,selection,[],
904,the one true condition,,,,,,,,,0.0-3.0-1.15,,[],,,,,283182,,34,spr-buttons,feedback,[],
904,the one true condition,9575,2_thick_1,True,D,,,,6cWDb4KB2JkQYoEn8,0.0-3.0-0.16,3,[],D,,,"[{'role': 'speaker', 'text': 'standing figure with book at left hand side', 'playerId': 'hMtbTjcXoP7mcPqWm'}]",292766,,35,spr-buttons,selection,[],
904,the one true condition,,,,,,,,,0.0-3.0-1.16,,[],,,,,293669,,36,spr-buttons,feedback,[],
904,the one true condition,12416,2_thick_6,True,J,,,,znKKpRy5yMqbmRwJs,0.0-3.0-0.17,2,[],J,,,"[{'role': 'speaker', 'text': 'Unfinished rectangle on bottom, box on top in diamond shape', 'playerId': 'BvaPCcwnMZiHzHzcz'}]",306094,,37,spr-buttons,selection,[],
904,the one true condition,,,,,,,,,0.0-3.0-1.17,,[],,,,,306998,,38,spr-buttons,feedback,[],
904,the one true condition,5323,2_thin_1,False,L,,,,BP9jqaXgDcqoupu9X,0.0-3.0-0.18,7,[],K,,,"[{'role': 'speaker', 'text': 'looks like someone crouching, with a diamond shaped head, holding what is a triangle', 'playerId': 'MjgM5qp98eAX4zuZL'}]",312334,,39,spr-buttons,selection,[],
904,the one true condition,,,,,,,,,0.0-3.0-1.18,,[],,,,,313238,,40,spr-buttons,feedback,[],
904,the one true condition,6280,2_thick_1,True,J,,,,6cWDb4KB2JkQYoEn8,0.0-3.0-0.19,2,[],J,,,"[{'role': 'speaker', 'text': 'boxy figure , shoulder sticking out on right, pointed toe on right', 'playerId': 'hMtbTjcXoP7mcPqWm'}]",319526,,41,spr-buttons,selection,[],
904,the one true condition,,,,,,,,,0.0-3.0-1.19,,[],,,,,320429,,42,spr-buttons,feedback,[],
904,the one true condition,10136,2_thick_6,False,G,,,,3LD6SkQZcPSYXHE9W,0.0-3.0-0.20,8,[],E,,,"[{'role': 'speaker', 'text': 'mouse with knees bent', 'playerId': 'LyQyeWbntRWk8ms69'}]",330579,,43,spr-buttons,selection,[],
904,the one true condition,,,,,,,,,0.0-3.0-1.20,,[],,,,,331481,,44,spr-buttons,feedback,[],
904,the one true condition,9310,6_thick_1,True,A,,,,5wn4MiopXyfXuTxG9,0.0-3.0-0.21,11,[],A,,,"[{'role': 'speaker', 'text': 'raise one leg to the front while head pointing down', 'playerId': 'krufYfRwDYfYGxy2G'}]",340810,,45,spr-buttons,selection,[],
904,the one true condition,,,,,,,,,0.0-3.0-1.21,,[],,,,,341714,,46,spr-buttons,feedback,[],
904,the one true condition,5777,2_thick_6,True,L,,,,GPXXTJBweJggYMYrF,0.0-3.0-0.22,6,[],L,,,"[{'role': 'speaker', 'text': 'praying slim one facing right no bumps on the back', 'playerId': 'ZLmRMKZzibrTNB5sv'}]",347499,,47,spr-buttons,selection,[],
904,the one true condition,,,,,,,,,0.0-3.0-1.22,,[],,,,,348402,,48,spr-buttons,feedback,[],
904,the one true condition,11232,6_thin_1,False,I,,,,tWcPGsuGdiD2J7Nrw,0.0-3.0-0.23,1,[],G,,,"[{'role': 'speaker', 'text': 'looks like a dancer and looking left', 'playerId': '4YpQbkXrBFLorgych'}, {'role': 'speaker', 'text': 'both hands out looking right', 'playerId': '4YpQbkXrBFLorgych'}, {'role': 'speaker', 'text': 'one leg up looking left', 'playerId': '4YpQbkXrBFLorgych'}]",359642,,49,spr-buttons,selection,[],
904,the one true condition,,,,,,,,,0.0-3.0-1.23,,[],,,,,360546,,50,spr-buttons,feedback,[],
904,the one true condition,35494,6_thick_1,False,L,,,,QkKavPsKXNH5uJzrs,0.0-3.0-0.24,1,[],G,,,"[{'role': 'speaker', 'text': 'this one looks like a person about to keel while holding their arms to the right', 'playerId': 'ySkkTvw6MWq2jN8sB'}, {'role': 'speaker', 'text': 'the bottom ""legs"" are together and bent to the right', 'playerId': 'ySkkTvw6MWq2jN8sB'}, {'role': 'speaker', 'text': 'the back is straight', 'playerId': 'ySkkTvw6MWq2jN8sB'}, {'role': 'listener', 'text': 'how about the arms', 'playerId': '45SedEFMPvXQwJr5u'}, {'role': 'speaker', 'text': 'the arms fe right', 'playerId': 'ySkkTvw6MWq2jN8sB'}]",396055,,51,spr-buttons,selection,[],
904,the one true condition,,,,,,,,,0.0-3.0-1.24,,[],,,,,396958,,52,spr-buttons,feedback,[],
904,the one true condition,2588,2_thin_1,False,F,,,,53uTmg2fquiNWgaK9,0.0-3.0-0.25,4,[],H,,,"[{'role': 'speaker', 'text': 'sitting', 'playerId': '8TCXBa5TcMjPDEKv6'}]",399559,,53,spr-buttons,selection,[],
904,the one true condition,,,,,,,,,0.0-3.0-1.25,,[],,,,,400462,,54,spr-buttons,feedback,[],
904,the one true condition,18247,6_thick_1,True,A,,,,244HZEA6vDgTcLdLs,0.0-3.0-0.26,11,[],A,,,"[{'role': 'speaker', 'text': 'Someone standing with their feet pointing left, one leg in the air, arms raised and their head looking right', 'playerId': 'qqFaAChg6PZNLvbix'}, {'role': 'speaker', 'text': 'The raised leg is in front of their body, not behind', 'playerId': 'qqFaAChg6PZNLvbix'}]",418711,,55,spr-buttons,selection,[],
904,the one true condition,,,,,,,,,0.0-3.0-1.26,,[],,,,,419615,,56,spr-buttons,feedback,[],
904,the one true condition,6596,2_thick_1,True,F,,,,TswNa6hfiGwkWHMgB,0.0-3.0-0.27,0,[],F,,,"[{'role': 'speaker', 'text': 'boy sitting with knees up', 'playerId': 'BCjiqev2Kt7Lze3nQ'}, {'role': 'speaker', 'text': ""blockhead boy sitting with knees up like he's reading a book on the ground"", 'playerId': 'BCjiqev2Kt7Lze3nQ'}]",426231,,57,spr-buttons,selection,[],
904,the one true condition,,,,,,,,,0.0-3.0-1.27,,[],,,,,427134,,58,spr-buttons,feedback,[],
904,the one true condition,27798,6_thin_1,True,K,,,,hZ2XNN9DzrhuXEEKk,0.0-3.0-0.28,7,[],K,,,"[{'role': 'speaker', 'text': ""kneeling looking right, invisible bench again but this time they're the one with the tail"", 'playerId': 'RXwxNgZ3woRKWejjP'}, {'role': 'speaker', 'text': 'arm out to the right', 'playerId': 'RXwxNgZ3woRKWejjP'}, {'role': 'speaker', 'text': 'looks like their head is sitting on top of a head', 'playerId': 'RXwxNgZ3woRKWejjP'}]",454948,,59,spr-buttons,selection,[],
904,the one true condition,,,,,,,,,0.0-3.0-1.28,,[],,,,,455851,,60,spr-buttons,feedback,[],
904,the one true condition,5964,2_thick_6,True,D,,,,McS8GHduqHkKFYD5o,0.0-3.0-0.29,3,[],D,,,"[{'role': 'speaker', 'text': 'podium guy facing left', 'playerId': 'qe6HAfu3ezEDCqbpT'}]",461819,,61,spr-buttons,selection,[],
904,the one true condition,,,,,,,,,0.0-3.0-1.29,,[],,,,,462722,,62,spr-buttons,feedback,[],
904,the one true condition,2165,2_thick_6,True,I,,,,znKKpRy5yMqbmRwJs,0.0-3.0-0.30,10,[],I,,,"[{'role': 'speaker', 'text': 'Ice skater', 'playerId': 'BvaPCcwnMZiHzHzcz'}]",464892,,63,spr-buttons,selection,[],
904,the one true condition,,,,,,,,,0.0-3.0-1.30,,[],,,,,465794,,64,spr-buttons,feedback,[],
904,the one true condition,11865,6_thin_1,True,E,,,,4jb479ZcxyntN9bzn,0.0-3.0-0.31,8,[],E,,,"[{'role': 'speaker', 'text': 'imagine a triangle with a square shape on top and then two small triangles on the very top', 'playerId': 'NLFbrRbtGqkj2hz48'}, {'role': 'speaker', 'text': 'the large triangle at the bottom has a rh side which is not straight, there is a bit indented', 'playerId': 'NLFbrRbtGqkj2hz48'}, {'role': 'speaker', 'text': 'looks a bit like a bunnies head at the top with two triangular ears', 'playerId': 'NLFbrRbtGqkj2hz48'}]",477660,,65,spr-buttons,selection,[],
904,the one true condition,,,,,,,,,0.0-3.0-1.31,,[],,,,,478564,,66,spr-buttons,feedback,[],
904,the one true condition,3912,6_thick_6,True,D,,,,2p26ok9CFsRGJGceh,0.0-3.0-0.32,3,[],D,,,"[{'role': 'speaker', 'text': ""5 5 It's the priest again giving his sermon to people on left"", 'playerId': 'wcqH3MeeC8KicnQmh'}]",482484,,67,spr-buttons,selection,[],
904,the one true condition,,,,,,,,,0.0-3.0-1.32,,[],,,,,483386,,68,spr-buttons,feedback,[],
904,the one true condition,16952,2_thin_1,False,K,,,,MgTftLm4vyzDj8Tv6,0.0-3.0-0.33,6,[],L,,,"[{'role': 'speaker', 'text': 'The figure is kneeling with back straight and facing to the right The body is vertical', 'playerId': 'KoTyLXzrbtuHjt625'}]",500348,,69,spr-buttons,selection,[],
904,the one true condition,,,,,,,,,0.0-3.0-1.33,,[],,,,,501251,,70,spr-buttons,feedback,[],
904,the one true condition,6140,2_thin_1,False,A,,,,9wbjtnF8xe5ymzikg,0.0-3.0-0.34,5,[],B,,,"[{'role': 'speaker', 'text': 'This looks like a half bird half human facing the left', 'playerId': '3R3qpxKrLougMSfGd'}]",507400,,71,spr-buttons,selection,[],
904,the one true condition,,,,,,,,,0.0-3.0-1.34,,[],,,,,508303,,72,spr-buttons,feedback,[],
904,the one true condition,10329,6_thick_6,False,H,,,,awMBFij9Yo8w2nA5K,0.0-3.0-0.35,1,[],G,,,"[{'role': 'speaker', 'text': 'Car seat again', 'playerId': 'tFxPDpxwB3TJg5B8c'}]",518640,,73,spr-buttons,selection,[],
904,the one true condition,,,,,,,,,0.0-3.0-1.35,,[],,,,,519543,,74,spr-buttons,feedback,[],
904,the one true condition,1704,6_thin_6,True,E,,,,Nh8nE8Qa4C3BkbhD6,0.0-3.0-0.36,8,[],E,,,"[{'role': 'speaker', 'text': 'bunny', 'playerId': '5JEmHBEF2C5GGGZkJ'}, {'role': 'speaker', 'text': 'rabbit ears', 'playerId': '5JEmHBEF2C5GGGZkJ'}]",521264,,75,spr-buttons,selection,[],
904,the one true condition,,,,,,,,,0.0-3.0-1.36,,[],,,,,522167,,76,spr-buttons,feedback,[],
904,the one true condition,7512,6_thin_1,True,L,,,,w3iX3WeXrGQDWqzwf,0.0-3.0-0.37,6,[],L,,,"[{'role': 'speaker', 'text': 'looks like they are ABOUT to kneel down', 'playerId': 'PbHbMMmhuqT4KcqhB'}, {'role': 'speaker', 'text': 'facing right', 'playerId': 'PbHbMMmhuqT4KcqhB'}, {'role': 'speaker', 'text': 'holding something pointy on the right', 'playerId': 'PbHbMMmhuqT4KcqhB'}]",529680,,77,spr-buttons,selection,[],
904,the one true condition,,,,,,,,,0.0-3.0-1.37,,[],,,,,530583,,78,spr-buttons,feedback,[],
904,the one true condition,1072,6_thick_6,True,E,,,,BTbGhXZvjdSFubTBg,0.0-3.0-0.38,8,[],E,,,"[{'role': 'speaker', 'text': 'rabbit ears', 'playerId': 'WXmyGwByDtSr3gTyk'}]",531664,,79,spr-buttons,selection,[],
904,the one true condition,,,,,,,,,0.0-3.0-1.38,,[],,,,,532567,,80,spr-buttons,feedback,[],
904,the one true condition,6384,6_thick_6,True,F,,,,3Sj3XTKmk9Rqe4Bim,0.0-3.0-0.39,0,[],F,,,"[{'role': 'speaker', 'text': 'sitting down back against the wall', 'playerId': 'xGudhNiRmy2YuaHzK'}]",538952,,81,spr-buttons,selection,[],
904,the one true condition,,,,,,,,,0.0-3.0-1.39,,[],,,,,539856,,82,spr-buttons,feedback,[],
904,the one true condition,6866,2_thin_6,False,L,,,,QTLcapnjShjWX3s4t,0.0-3.0-0.40,1,[],G,,,"[{'role': 'speaker', 'text': ""body is 's' shape"", 'playerId': 'xC7eosoFk4ekBGb85'}]",546728,,83,spr-buttons,selection,[],
904,the one true condition,,,,,,,,,0.0-3.0-1.40,,[],,,,,547632,,84,spr-buttons,feedback,[],
904,the one true condition,7168,6_thick_6,True,F,,,,QG9fkFCXKj6g9mjR5,0.0-3.0-0.41,0,[],F,,,"[{'role': 'speaker', 'text': 'Knees bent upwards with head in middle diagonal to left', 'playerId': 'u3bWoHe66Wu9yh7ka'}]",554808,,85,spr-buttons,selection,[],
904,the one true condition,,,,,,,,,0.0-3.0-1.41,,[],,,,,555711,,86,spr-buttons,feedback,[],
904,the one true condition,12972,6_thick_1,True,I,,,,8ukdn7m9ypXhxpPR4,0.0-3.0-0.42,10,[],I,,,"[{'role': 'speaker', 'text': 'the figures leg is in the air one foot on the ground the other in the air the figure is faced on the left the leg up is on the right', 'playerId': 'HjETYsPdB49PboNEN'}, {'role': 'listener', 'text': '2 triangles on the left', 'playerId': 'ygaSc6oZ2uhyiDKbr'}]",568685,,87,spr-buttons,selection,[],
904,the one true condition,,,,,,,,,0.0-3.0-1.42,,[],,,,,569588,,88,spr-buttons,feedback,[],
904,the one true condition,9828,6_thick_1,True,D,,,,3Sj3XTKmk9Rqe4Bim,0.0-3.0-0.43,3,[],D,,,"[{'role': 'speaker', 'text': 'looks like the outline of a priest or pope with their arms extended out maybe holding a robe or cloth', 'playerId': 'xGudhNiRmy2YuaHzK'}]",579429,,89,spr-buttons,selection,[],
904,the one true condition,,,,,,,,,0.0-3.0-1.43,,[],,,,,580333,,90,spr-buttons,feedback,[],
904,the one true condition,1864,2_thick_6,True,C,,,,htub6itv8siAtQv22,0.0-3.0-0.44,9,[],C,,,"[{'role': 'speaker', 'text': 'arms in air', 'playerId': 'HvkLtechHtpsjT9rJ'}]",582205,,91,spr-buttons,selection,[],
904,the one true condition,,,,,,,,,0.0-3.0-1.44,,[],,,,,583108,,92,spr-buttons,feedback,[],
904,the one true condition,6752,2_thin_6,False,K,,,,yY6t3ocwkwtpDQevb,0.0-3.0-0.45,4,[],H,,,"[{'role': 'speaker', 'text': 'kneeling down facing right', 'playerId': 'JQciaQvCsPE2Ai83S'}, {'role': 'speaker', 'text': 'holding book', 'playerId': 'JQciaQvCsPE2Ai83S'}]",589860,,93,spr-buttons,selection,[],
904,the one true condition,,,,,,,,,0.0-3.0-1.45,,[],,,,,590763,,94,spr-buttons,feedback,[],
904,the one true condition,13844,6_thin_1,True,J,,,,2nZ79PA8WMtYNqLrS,0.0-3.0-0.46,2,[],J,,,"[{'role': 'speaker', 'text': 'me again', 'playerId': 'ctzHieY2ez3ECHtRo'}, {'role': 'speaker', 'text': 'triangle arm pointing right', 'playerId': 'ctzHieY2ez3ECHtRo'}, {'role': 'speaker', 'text': 'middle head', 'playerId': 'ctzHieY2ez3ECHtRo'}, {'role': 'speaker', 'text': 'straight shoulders', 'playerId': 'ctzHieY2ez3ECHtRo'}]",604613,,95,spr-buttons,selection,[],
904,the one true condition,,,,,,,,,0.0-3.0-1.46,,[],,,,,605516,,96,spr-buttons,feedback,[],
904,the one true condition,2144,6_thick_6,True,C,,,,ASJgHR2N8wCgN32cu,0.0-3.0-0.47,9,[],C,,,"[{'role': 'speaker', 'text': 'A person falling backwards to the left, arms bent and raised up', 'playerId': 'YT2Nq7XZoMqoZoRX9'}]",607669,,97,spr-buttons,selection,[],
904,the one true condition,,,,,,,,,0.0-3.0-1.47,,[],,,,,608572,,98,spr-buttons,feedback,[],
904,the one true condition,1359,6_thick_6,True,E,,,,8ukdn7m9ypXhxpPR4,0.0-3.0-0.48,8,[],E,,,"[{'role': 'speaker', 'text': 'bunny ears', 'playerId': 'WsHSgaSjxKhCm57LZ'}]",609933,,99,spr-buttons,selection,[],
904,the one true condition,,,,,,,,,0.0-3.0-1.48,,[],,,,,610835,,100,spr-buttons,feedback,[],
904,the one true condition,6817,6_thick_6,True,I,,,,8ukdn7m9ypXhxpPR4,0.0-3.0-0.49,10,[],I,,,"[{'role': 'speaker', 'text': 'facing left standing on one foot, right foot in the air and is a small triangle', 'playerId': 'WsHSgaSjxKhCm57LZ'}, {'role': 'listener', 'text': 'skater', 'playerId': 'N7qTc2Ayd38hahFsw'}]",617653,,101,spr-buttons,selection,[],
904,the one true condition,,,,,,,,,0.0-3.0-1.49,,[],,,,,618556,,102,spr-buttons,feedback,[],
904,the one true condition,4264,6_thin_6,True,A,,,,w3iX3WeXrGQDWqzwf,0.0-3.0-0.50,11,[],A,,,"[{'role': 'speaker', 'text': ""It's a zombie doing the monster mash"", 'playerId': 'qr7WFkkaeMgxBYpzE'}]",622829,,103,spr-buttons,selection,[],
904,the one true condition,,,,,,,,,0.0-3.0-1.50,,[],,,,,623732,,104,spr-buttons,feedback,[],
904,the one true condition,4972,2_thin_6,True,D,,,,GGz5Zb58tHpG8X5z7,0.0-3.0-0.51,3,[],D,,,"[{'role': 'speaker', 'text': 'priest facing left, arms hands together out front left diamond head', 'playerId': 'zMrgbynyhLhqT5X3C'}]",628705,,105,spr-buttons,selection,[],
904,the one true condition,,,,,,,,,0.0-3.0-1.51,,[],,,,,629608,,106,spr-buttons,feedback,[],
904,the one true condition,10648,2_thick_1,False,K,,,,GPXXTJBweJggYMYrF,0.0-3.0-0.52,6,[],L,,,"[{'role': 'speaker', 'text': 'a guy on his knees', 'playerId': 'ZLmRMKZzibrTNB5sv'}, {'role': 'speaker', 'text': 'facing right', 'playerId': 'ZLmRMKZzibrTNB5sv'}, {'role': 'speaker', 'text': 'legs goes upwards', 'playerId': 'ZLmRMKZzibrTNB5sv'}, {'role': 'listener', 'text': ""Almost like he's praying"", 'playerId': 'WhGFXm8vfWS34Gc2k'}]",640273,,107,spr-buttons,selection,[],
904,the one true condition,,,,,,,,,0.0-3.0-1.52,,[],,,,,641176,,108,spr-buttons,feedback,[],
904,the one true condition,6294,6_thin_6,True,I,,,,2gkxKTcPdQews5qTX,0.0-3.0-0.53,10,[],I,,,"[{'role': 'speaker', 'text': 'standing one leg other leg pointing right horizontally', 'playerId': 'yN5pFmHQdR2zzStyt'}]",647489,,109,spr-buttons,selection,[],
904,the one true condition,,,,,,,,,0.0-3.0-1.53,,[],,,,,648392,,110,spr-buttons,feedback,[],
904,the one true condition,7360,2_thin_1,True,C,,,,byWRCj2bTz2Guefog,0.0-3.0-0.54,9,[],C,,,"[{'role': 'speaker', 'text': 'this looks like a person leaning to the left with their arms in the air', 'playerId': 'AXLc5WsF9dMwS482A'}, {'role': 'speaker', 'text': 'they look like they are shouting someone and hard a square head', 'playerId': 'AXLc5WsF9dMwS482A'}, {'role': 'speaker', 'text': ""they look stood up but you can't see their legs, only their body"", 'playerId': 'AXLc5WsF9dMwS482A'}, {'role': 'speaker', 'text': 'they look like they are shouting something', 'playerId': 'AXLc5WsF9dMwS482A'}]",655761,,111,spr-buttons,selection,[],
904,the one true condition,,,,,,,,,0.0-3.0-1.54,,[],,,,,656664,,112,spr-buttons,feedback,[],
904,the one true condition,4385,6_thin_1,True,J,,,,RBnjoHwwmyq7ojwD7,0.0-3.0-0.55,2,[],J,,,"[{'role': 'speaker', 'text': 'Kind of looks like a candle with chunks missing', 'playerId': 'h7JqyA9bN55Ztvpnp'}, {'role': 'speaker', 'text': 'to the right the chunks are missing', 'playerId': 'h7JqyA9bN55Ztvpnp'}, {'role': 'speaker', 'text': 'left is still in tact', 'playerId': 'h7JqyA9bN55Ztvpnp'}]",661057,,113,spr-buttons,selection,[],
904,the one true condition,,,,,,,,,0.0-3.0-1.55,,[],,,,,661960,,114,spr-buttons,feedback,[],
904,the one true condition,17966,2_thin_1,True,E,,,,dL448N8edL6crs7PZ,0.0-3.0-0.56,8,[],E,,,"[{'role': 'speaker', 'text': 'Looks like bunny ears on top of the head,, facing the right sitting, straight line back on the left, knees slightly raised', 'playerId': 'MoZuftrvPB2dHtT5i'}]",679937,,115,spr-buttons,selection,[],
904,the one true condition,,,,,,,,,0.0-3.0-1.56,,[],,,,,680841,,116,spr-buttons,feedback,[],
904,the one true condition,13911,2_thin_6,False,B,,,,tac8f7dPdRJLBrSMh,0.0-3.0-0.57,1,[],G,,,"[{'role': 'speaker', 'text': 'arms and legs behind them, on their knees, megaphone', 'playerId': 'K55iXDsX2B8hnentx'}]",694750,,117,spr-buttons,selection,[],
904,the one true condition,,,,,,,,,0.0-3.0-1.57,,[],,,,,695653,,118,spr-buttons,feedback,[],
904,the one true condition,19145,2_thick_1,False,I,,,,JCq6bt8bjpBggFPyM,0.0-3.0-0.58,1,[],G,,,"[{'role': 'speaker', 'text': 'the square head is on the top left by itself', 'playerId': '7KhipcCnuF2SDDKvi'}, {'role': 'speaker', 'text': 'shaped like a diamond from playing cards', 'playerId': '7KhipcCnuF2SDDKvi'}, {'role': 'speaker', 'text': 'with a leg sticking out to the right', 'playerId': '7KhipcCnuF2SDDKvi'}, {'role': 'speaker', 'text': 'looks like a dance pose', 'playerId': '7KhipcCnuF2SDDKvi'}]",714806,,119,spr-buttons,selection,[],
904,the one true condition,,,,,,,,,0.0-3.0-1.58,,[],,,,,715710,,120,spr-buttons,feedback,[],
904,the one true condition,14683,6_thick_1,False,K,,,,eYSrAKh9knoEHcLid,0.0-3.0-0.59,2,[],J,,,"[{'role': 'speaker', 'text': 'There is a person standing upright, perhaps holding something flat on the right The bottom left has part of a triangle which the person is stand in front of', 'playerId': 'mMkdNCbkNosrcwQ6M'}]",730398,,121,spr-buttons,selection,[],
904,the one true condition,,,,,,,,,0.0-3.0-1.59,,[],,,,,731301,,122,spr-buttons,feedback,[],
904,the one true condition,5280,2_thin_6,True,C,,,,byWRCj2bTz2Guefog,0.0-3.0-0.60,9,[],C,,,"[{'role': 'speaker', 'text': ""they're flying with arms wide out"", 'playerId': 'XJrMGAcWFb5rBFLwQ'}]",736590,,123,spr-buttons,selection,[],
904,the one true condition,,,,,,,,,0.0-3.0-1.60,,[],,,,,737493,,124,spr-buttons,feedback,[],
904,the one true condition,69137,6_thin_1,False,H,,,,3zuSR5MLLHFo57ngd,0.0-3.0-0.61,5,[],B,,,"[{'role': 'speaker', 'text': 'this one is hard', 'playerId': 'w98K6KFZmHPyfnTcw'}, {'role': 'speaker', 'text': 'never picked before', 'playerId': 'w98K6KFZmHPyfnTcw'}, {'role': 'speaker', 'text': 'diamond head', 'playerId': 'w98K6KFZmHPyfnTcw'}, {'role': 'speaker', 'text': 'triangle directly below head', 'playerId': 'w98K6KFZmHPyfnTcw'}, {'role': 'speaker', 'text': 'looks like a person standing with their back to the image', 'playerId': 'w98K6KFZmHPyfnTcw'}, {'role': 'speaker', 'text': 'not sitting, or dancing or with a platter', 'playerId': 'w98K6KFZmHPyfnTcw'}, {'role': 'speaker', 'text': 'like a diamond on top of a triangle on top of a square with a weird piece at the bottom', 'playerId': 'w98K6KFZmHPyfnTcw'}, {'role': 'speaker', 'text': 'not the dancer, the waiter, the candle, the sitter, the falling person or the rock', 'playerId': 'w98K6KFZmHPyfnTcw'}, {'role': 'speaker', 'text': 'not the prayer', 'playerId': 'w98K6KFZmHPyfnTcw'}, {'role': 'speaker', 'text': 'the other one', 'playerId': 'w98K6KFZmHPyfnTcw'}]",806634,,125,spr-buttons,selection,[],
904,the one true condition,,,,,,,,,0.0-3.0-1.61,,[],,,,,807538,,126,spr-buttons,feedback,[],
904,the one true condition,18591,6_thin_6,False,G,,,,tGuW7nukBHY72yfXn,0.0-3.0-0.62,5,[],B,,,"[{'role': 'speaker', 'text': 'Slumped, left-facing, weird bunny man with triangle hand on right side', 'playerId': 'qatayjkTEqMM6STZS'}, {'role': 'speaker', 'text': 'Square For left ear and triangle for right-facing ear', 'playerId': 'qatayjkTEqMM6STZS'}, {'role': 'speaker', 'text': ""It's that weird slumped shape facing left that looks nothing like a man"", 'playerId': 'qatayjkTEqMM6STZS'}]",826135,,127,spr-buttons,selection,[],
904,the one true condition,,,,,,,,,0.0-3.0-1.62,,[],,,,,827039,,128,spr-buttons,feedback,[],
904,the one true condition,10418,6_thin_1,True,H,,,,jWzDEXYJTqaLuxEfm,0.0-3.0-0.63,4,[],H,,,"[{'role': 'speaker', 'text': 'central body with diamond top centre', 'playerId': '6HHKBfyiqinL7JG2J'}, {'role': 'speaker', 'text': 'vertical body with diamond on top', 'playerId': '6HHKBfyiqinL7JG2J'}]",837471,,129,spr-buttons,selection,[],
904,the one true condition,,,,,,,,,0.0-3.0-1.63,,[],,,,,838374,,130,spr-buttons,feedback,[],
904,the one true condition,,,,,,,,,0.0-4.0,"{'other': 'No', 'errors': 'No', 'length': 'It was a good amount', 'interface': 'No', 'understand': 'No'}",14369,,,,,852764,,131,survey-text,,,
904,the one true condition,,,,,,,,,0.0-5.0,0,1618,,"<h2>Many thanks for participating!</h2><p>We are generally interested in how people form conventions, such as shared 'nicknames' for images. Here, we are studying when these shared 'nicknames' are understandable to people who were not part of the group that created the nickname.</p><h1>Press continue to be redirected to Prolific. </h1>",,,854383,,132,html-button-response,,,
906,the one true condition,,,,,[],[],[],,0.0-0.0,,,,,True,,63,False,0,preload,,,
906,the one true condition,,,,,,,,,0.0-1.0,0,2321,," <center><img width=""300px"" src=""assets/stanford.png"" /></center><div id=""legal""></br>By answering the following questions, you are participating in a study being performed by cognitive scientists in the Stanford Department of Psychology. If you have questions about this research, please contact us at  <a href=""mailto://languagecoglab@gmail.com.""> languagecoglab@gmail.com</a>.You must be at least 18 years old to participate. Your participation in this research is voluntary. You may decline to answer any or all of the following questions. You may decline further participation, at any time, without adverse consequences. Your anonymity is assured; the researchers who have requested your participation will not receive any personal information about you. </div></br>",,,2385,,1,html-button-response,,,
906,the one true condition,,,,,,,,,0.0-2.0,0,8332,,"<h3>Please read these instructions carefully!</h3> </br><div id=""intro""> <p>In this task, you will see a <b>transcript of a conversation</b> some previous participants had where a <b>speaker identified one of the images to some listeners</b>.</p></br><center><img width=""600px"" src=""assets/demo.png"" /></center></br><p>Your goal is to <b>read the transcript</b> and <b>figure out which image</b> is being described! </p><p>You will <b>click the image</b> you think is being described, and then you will <b>find out if you were right</b>.<p><p>You will see <b>64 trials</b>. The image choices will stay the same, but the transcripts will come from different groups of people. Some of the transcripts may be much shorter or longer than others. Some of the descriptions may be hard to understand -- just take a guess if you are not sure.</p><p>You will get a bonus of <b>5 cents</b> for each image you get right! </p><p> <b>Note:</b> These descriptions came from real people and may contain inappropriate or offensive language. If you find a description inappropriate, please let us know via Prolific message or in the exit survey, so we can filter it out in the future.</p>",,,10718,,2,html-button-response,,,
906,the one true condition,88519,2_thick_1,True,I,,,,znKKpRy5yMqbmRwJs,0.0-3.0-0.0,4,[],I,,,"[{'role': 'speaker', 'text': 'Figure turned to left, triangle looks like a tail on the right', 'playerId': 'BvaPCcwnMZiHzHzcz'}]",99239,,3,spr-buttons,selection,[],
906,the one true condition,,,,,,,,,0.0-3.0-1.0,,[],,,,,100172,,4,spr-buttons,feedback,[],
906,the one true condition,10842,6_thick_6,True,H,,,,2p26ok9CFsRGJGceh,0.0-3.0-0.1,6,[],H,,,"[{'role': 'speaker', 'text': '5 5 This one is Blob No definition on arms or legs', 'playerId': 'wcqH3MeeC8KicnQmh'}]",111014,,5,spr-buttons,selection,[],
906,the one true condition,,,,,,,,,0.0-3.0-1.1,,[],,,,,111920,,6,spr-buttons,feedback,[],
906,the one true condition,7104,6_thick_6,True,I,,,,APb85jFMnKTvtxB9Q,0.0-3.0-0.2,4,[],I,,,"[{'role': 'speaker', 'text': 'Ice skating', 'playerId': '8EKHajAZMvmFinexJ'}]",119024,,7,spr-buttons,selection,[],
906,the one true condition,,,,,,,,,0.0-3.0-1.2,,[],,,,,119930,,8,spr-buttons,feedback,[],
906,the one true condition,9753,6_thin_1,True,K,,,,dG226KpEbdnXwkPGx,0.0-3.0-0.3,10,[],K,,,"[{'role': 'speaker', 'text': 'Looks like the image is bowing down', 'playerId': 'MRy5sG4H9RcBMfW2b'}, {'role': 'speaker', 'text': 'Holding a bowl', 'playerId': 'MRy5sG4H9RcBMfW2b'}]",129684,,9,spr-buttons,selection,[],
906,the one true condition,,,,,,,,,0.0-3.0-1.3,,[],,,,,130593,,10,spr-buttons,feedback,[],
906,the one true condition,8893,2_thick_6,False,H,,,,Z2WAkYpWiXwuGcdME,0.0-3.0-0.4,9,[],A,,,"[{'role': 'speaker', 'text': 'limbles', 'playerId': 'R3cRgh4HmEtRsmQyp'}]",139485,,11,spr-buttons,selection,[],
906,the one true condition,,,,,,,,,0.0-3.0-1.4,,[],,,,,140398,,12,spr-buttons,feedback,[],
906,the one true condition,9424,2_thick_6,True,C,,,,znKKpRy5yMqbmRwJs,0.0-3.0-0.5,0,[],C,,,"[{'role': 'speaker', 'text': 'Arms Skyward U-shape', 'playerId': 'BvaPCcwnMZiHzHzcz'}]",149823,,13,spr-buttons,selection,[],
906,the one true condition,,,,,,,,,0.0-3.0-1.5,,[],,,,,150727,,14,spr-buttons,feedback,[],
906,the one true condition,4177,2_thick_1,False,K,,,,cCSd3v7a6AH8fHsJE,0.0-3.0-0.6,3,[],B,,,"[{'role': 'speaker', 'text': 'kneling', 'playerId': 'Dmv2wGZJEid5oXz3M'}, {'role': 'speaker', 'text': 'kneeling', 'playerId': 'Dmv2wGZJEid5oXz3M'}]",154905,,15,spr-buttons,selection,[],
906,the one true condition,,,,,,,,,0.0-3.0-1.6,,[],,,,,155811,,16,spr-buttons,feedback,[],
906,the one true condition,84303,6_thin_1,False,L,,,,rg6f4GNbTus2Lzao6,0.0-3.0-0.7,7,[],G,,,"[{'role': 'speaker', 'text': 'this image has 15 points if you count all the points and indents', 'playerId': 'J5hxT8MZzjufvnjAt'}, {'role': 'speaker', 'text': 'one square, one rhombus', 'playerId': 'J5hxT8MZzjufvnjAt'}, {'role': 'speaker', 'text': 'the rhombus is on the outside', 'playerId': 'J5hxT8MZzjufvnjAt'}, {'role': 'speaker', 'text': 'there is one triangle sticking out of the image', 'playerId': 'J5hxT8MZzjufvnjAt'}, {'role': 'speaker', 'text': 'two', 'playerId': 'J5hxT8MZzjufvnjAt'}]",240115,,17,spr-buttons,selection,[],
906,the one true condition,,,,,,,,,0.0-3.0-1.7,,[],,,,,241022,,18,spr-buttons,feedback,[],
906,the one true condition,29094,6_thick_6,False,K,,,,6ikro5aNu98qHGGFL,0.0-3.0-0.8,3,[],B,,,"[{'role': 'speaker', 'text': 'kneeling feet behind her arms out in front diamond head facing right', 'playerId': 'Mm4ut74JJKd55WcMT'}]",270116,,19,spr-buttons,selection,[],
906,the one true condition,,,,,,,,,0.0-3.0-1.8,,[],,,,,271027,,20,spr-buttons,feedback,[],
906,the one true condition,8278,6_thin_6,True,I,,,,dG226KpEbdnXwkPGx,0.0-3.0-0.9,4,[],I,,,"[{'role': 'speaker', 'text': 'Ballet dancer, one leg pointing right', 'playerId': 'MRy5sG4H9RcBMfW2b'}]",279305,,21,spr-buttons,selection,[],
906,the one true condition,,,,,,,,,0.0-3.0-1.9,,[],,,,,280213,,22,spr-buttons,feedback,[],
906,the one true condition,6745,6_thin_6,False,F,,,,jWzDEXYJTqaLuxEfm,0.0-3.0-0.10,11,[],D,,,"[{'role': 'speaker', 'text': 'sitting on floor facing left, knees bent', 'playerId': '6HHKBfyiqinL7JG2J'}]",286958,,23,spr-buttons,selection,[],
906,the one true condition,,,,,,,,,0.0-3.0-1.10,,[],,,,,287865,,24,spr-buttons,feedback,[],
906,the one true condition,9925,2_thin_6,True,L,,,,BP9jqaXgDcqoupu9X,0.0-3.0-0.11,1,[],L,,,"[{'role': 'speaker', 'text': '* The guy facing right and holding a plate, but with the legs bending', 'playerId': '6FJS2spM98nBBPJdc'}]",297789,,25,spr-buttons,selection,[],
906,the one true condition,,,,,,,,,0.0-3.0-1.11,,[],,,,,298693,,26,spr-buttons,feedback,[],
906,the one true condition,16844,2_thick_1,True,K,,,,GPXXTJBweJggYMYrF,0.0-3.0-0.12,10,[],K,,,"[{'role': 'speaker', 'text': 'a guy on his knees', 'playerId': 'ZLmRMKZzibrTNB5sv'}, {'role': 'speaker', 'text': 'facing right', 'playerId': 'ZLmRMKZzibrTNB5sv'}, {'role': 'speaker', 'text': 'legs goes upwards', 'playerId': 'ZLmRMKZzibrTNB5sv'}, {'role': 'listener', 'text': ""Almost like he's praying"", 'playerId': 'WhGFXm8vfWS34Gc2k'}]",315538,,27,spr-buttons,selection,[],
906,the one true condition,,,,,,,,,0.0-3.0-1.12,,[],,,,,316441,,28,spr-buttons,feedback,[],
906,the one true condition,20775,6_thick_1,True,H,,,,5wn4MiopXyfXuTxG9,0.0-3.0-0.13,6,[],H,,,"[{'role': 'speaker', 'text': 'Figure standing upright with no limbs extended', 'playerId': 'HJoHFMvp6qPSD2pXk'}]",337217,,29,spr-buttons,selection,[],
906,the one true condition,,,,,,,,,0.0-3.0-1.13,,[],,,,,338128,,30,spr-buttons,feedback,[],
906,the one true condition,41553,6_thin_1,False,D,,,,vuZBGuCBS5f9ibvk7,0.0-3.0-0.14,7,[],G,,,"[{'role': 'speaker', 'text': ""it's like a person holding something in front of them but its the one we have never chose in the other experiments It looks like they are holding a square"", 'playerId': 'yyyzhfLtfEXgbF8XH'}, {'role': 'speaker', 'text': 'kinda', 'playerId': 'yyyzhfLtfEXgbF8XH'}, {'role': 'speaker', 'text': 'holding something in front of them but going to the left', 'playerId': 'yyyzhfLtfEXgbF8XH'}]",379683,,31,spr-buttons,selection,[],
906,the one true condition,,,,,,,,,0.0-3.0-1.14,,[],,,,,380591,,32,spr-buttons,feedback,[],
906,the one true condition,7664,6_thin_6,False,C,,,,6ENiBxty3sZRCqqCy,0.0-3.0-0.15,7,[],G,,,"[{'role': 'speaker', 'text': 'Ghost one', 'playerId': 'EgTDCTTrJr8uxt6YW'}]",388254,,33,spr-buttons,selection,[],
906,the one true condition,,,,,,,,,0.0-3.0-1.15,,[],,,,,389161,,34,spr-buttons,feedback,[],
906,the one true condition,11797,2_thick_6,False,B,,,,3fMcwrqnhrEwubixY,0.0-3.0-0.16,8,[],J,,,"[{'role': 'speaker', 'text': 'facing right kneeling head bowed arms stretched out', 'playerId': 'eMvgBjGsYxCbZWwkM'}]",400958,,35,spr-buttons,selection,[],
906,the one true condition,,,,,,,,,0.0-3.0-1.16,,[],,,,,401865,,36,spr-buttons,feedback,[],
906,the one true condition,27894,6_thick_1,True,A,,,,vHRdxbuskY9MXxf4j,0.0-3.0-0.17,9,[],A,,,"[{'role': 'listener', 'text': ""That's what i'm talking about"", 'playerId': 'diPZJB3aPyKz8PQGT'}, {'role': 'speaker', 'text': ""this one looks like he's walking, facing left with one foot up"", 'playerId': 'RSQku3ckThbYxojeR'}, {'role': 'listener', 'text': 'almost like the zombie walk, and a weird triangle shape at the top left', 'playerId': 'diPZJB3aPyKz8PQGT'}]",429759,,37,spr-buttons,selection,[],
906,the one true condition,,,,,,,,,0.0-3.0-1.17,,[],,,,,430680,,38,spr-buttons,feedback,[],
906,the one true condition,2638,2_thick_6,True,L,,,,iccbYJSQjLTn6eLYG,0.0-3.0-0.18,1,[],L,,,"[{'role': 'speaker', 'text': 'almost kneeling man', 'playerId': '5Hf9XL6EddeSLkxR5'}]",433319,,39,spr-buttons,selection,[],
906,the one true condition,,,,,,,,,0.0-3.0-1.18,,[],,,,,434230,,40,spr-buttons,feedback,[],
906,the one true condition,19814,6_thick_1,False,F,,,,QkKavPsKXNH5uJzrs,0.0-3.0-0.19,7,[],G,,,"[{'role': 'speaker', 'text': 'this one looks like a person sitting down with their legs out to the left', 'playerId': 'ySkkTvw6MWq2jN8sB'}, {'role': 'speaker', 'text': 'the ""head"" square is tilted slightly to the left', 'playerId': 'ySkkTvw6MWq2jN8sB'}, {'role': 'listener', 'text': 'head pointed down to the left looking at the knees', 'playerId': 'ea3zT2a6Nrh5t4NAB'}]",454044,,41,spr-buttons,selection,[],
906,the one true condition,,,,,,,,,0.0-3.0-1.19,,[],,,,,454960,,42,spr-buttons,feedback,[],
906,the one true condition,8637,6_thin_1,True,A,,,,vfBNc7APPeQqXwJep,0.0-3.0-0.20,9,[],A,,,"[{'role': 'speaker', 'text': 'it has what looks like two legs on the bottom', 'playerId': 'AbDh35xzSqzppDyPx'}, {'role': 'speaker', 'text': 'a square at the top right', 'playerId': 'AbDh35xzSqzppDyPx'}, {'role': 'speaker', 'text': 'and a trapezoid at the top left', 'playerId': 'AbDh35xzSqzppDyPx'}]",463598,,43,spr-buttons,selection,[],
906,the one true condition,,,,,,,,,0.0-3.0-1.20,,[],,,,,464511,,44,spr-buttons,feedback,[],
906,the one true condition,27389,6_thin_6,True,K,,,,2nZ79PA8WMtYNqLrS,0.0-3.0-0.21,10,[],K,,,"[{'role': 'speaker', 'text': 'Kneeling person, facing right (might have a pot, but not the usual pot guy)', 'playerId': 'JGqkYg6ZyfkmWfboq'}, {'role': 'speaker', 'text': 'Not crouching!', 'playerId': 'JGqkYg6ZyfkmWfboq'}, {'role': 'speaker', 'text': 'Kneeling!', 'playerId': 'JGqkYg6ZyfkmWfboq'}, {'role': 'speaker', 'text': 'Looks a bit like a rubber duck with something on its head', 'playerId': 'JGqkYg6ZyfkmWfboq'}, {'role': 'speaker', 'text': 'Diamond at the top, on top of another diamond', 'playerId': 'JGqkYg6ZyfkmWfboq'}]",491899,,45,spr-buttons,selection,[],
906,the one true condition,,,,,,,,,0.0-3.0-1.21,,[],,,,,492803,,46,spr-buttons,feedback,[],
906,the one true condition,18095,6_thick_1,False,L,,,,6ikro5aNu98qHGGFL,0.0-3.0-0.22,10,[],K,,,"[{'role': 'speaker', 'text': 'partially sitting , triangle for the head , facing right , ars and knees out in front of body', 'playerId': 'Mm4ut74JJKd55WcMT'}, {'role': 'speaker', 'text': 'feet behind him', 'playerId': 'Mm4ut74JJKd55WcMT'}, {'role': 'listener', 'text': 'do you mean a diamond for the head', 'playerId': 'NeeLki6vCQP4BXAQp'}]",510898,,47,spr-buttons,selection,[],
906,the one true condition,,,,,,,,,0.0-3.0-1.22,,[],,,,,511809,,48,spr-buttons,feedback,[],
906,the one true condition,4834,2_thin_6,False,J,,,,MgTftLm4vyzDj8Tv6,0.0-3.0-0.23,7,[],G,,,"[{'role': 'speaker', 'text': 'semi blocky', 'playerId': 'jNouuygdxoy87gYP6'}]",516644,,49,spr-buttons,selection,[],
