workerid,proliferate.condition,button_rt,condition,correct,correct_tangram,failed_audio,failed_images,failed_video,gameId,internal_node_id,response,rt,selected,stimulus,success,text,time_elapsed,timeout,trial_index,trial_type,type,word,error
831,the only one,,,,,[],[],[],,0.0-0.0,,,,,True,,372,False,0,preload,,,
831,the only one,,,,,,,,,0.0-1.0,0,2505,," <center><img width=""300px"" src=""assets/stanford.png"" /></center><div id=""legal""></br>By answering the following questions, you are participating in a study being performed by cognitive scientists in the Stanford Department of Psychology. If you have questions about this research, please contact us at  <a href=""mailto://languagecoglab@gmail.com.""> languagecoglab@gmail.com</a>.You must be at least 18 years old to participate. Your participation in this research is voluntary. You may decline to answer any or all of the following questions. You may decline further participation, at any time, without adverse consequences. Your anonymity is assured; the researchers who have requested your participation will not receive any personal information about you. </div></br>",,,2879,,1,html-button-response,,,
831,the only one,,,,,,,,,0.0-2.0,0,34755,,"<h3>Please read these instructions carefully!</h3> </br><div id=""intro""> <p>In this task, you will see a <b>transcript of a conversation</b> some previous participants had where a <b>speaker identified one of the images to some listeners</b>.</p></br><center><img width=""600px"" src=""assets/demo.png"" /></center></br><p>Your goal is to <b>read the transcript</b> and <b>figure out which image</b> is being described! </p><p>You will <b>click the image</b> you think is being described, and then you will <b>find out if you were right</b>.<p><p>You will see <b>60 trials</b>. The image choices will stay the same, but the transcripts will come from different groups of people. Some of the transcripts may be much shorter or longer than others. Some of the descriptions may be hard to understand -- just take a guess if you are not sure.</p><p>You will get a bonus of <b>5 cents</b> for each image you get right! </p><p> <b>Note:</b> These descriptions came from real people and may contain inappropriate or offensive language. If you find a description inappropriate, please let us know via Prolific message or in the exit survey, so we can filter it out in the future.</p>",,,37635,,2,html-button-response,,,
831,the only one,21654,2_rotate_1,True,D,,,,79swBZFsJnrQuHvhd,0.0-3.0-0.0,1,[],D,,,"[{'role': 'speaker', 'text': 'man standing holding a box with an open lid in front of him to the left', 'playerId': 'wQmTAXk3WXqT2b275'}]",59291,,3,spr-buttons,selection,[],
831,the only one,,,,,,,,,0.0-3.0-1.0,,[],,,,,60207,,4,spr-buttons,feedback,[],
831,the only one,6767,2_rotate_6,True,I,,,,GpF4Ge9YCd7ih3DFr,0.0-3.0-0.1,9,[],I,,,"[{'role': 'speaker', 'text': 'skater!', 'playerId': '9DEoh9BWkZFYxhECs'}]",66976,,5,spr-buttons,selection,[],
831,the only one,,,,,,,,,0.0-3.0-1.1,,[],,,,,67895,,6,spr-buttons,feedback,[],
831,the only one,7873,2_rotate_1,True,E,,,,YLCrDGMMiennGjggY,0.0-3.0-0.2,11,[],E,,,"[{'role': 'speaker', 'text': 'this one kinda looks like a rabbit', 'playerId': '9KnsNqjRjt4q7CtbN'}, {'role': 'speaker', 'text': 'sitting on the ground', 'playerId': '9KnsNqjRjt4q7CtbN'}, {'role': 'speaker', 'text': 'a long bottom and a head with ears standing out', 'playerId': '9KnsNqjRjt4q7CtbN'}, {'role': 'speaker', 'text': 'it has a triangular body', 'playerId': '9KnsNqjRjt4q7CtbN'}]",75774,,7,spr-buttons,selection,[],
831,the only one,,,,,,,,,0.0-3.0-1.2,,[],,,,,76693,,8,spr-buttons,feedback,[],
831,the only one,15399,2_rotate_1,True,D,,,,dBAksjEwZCAZRyqJk,0.0-3.0-0.3,1,[],D,,,"[{'role': 'speaker', 'text': 'looks like a person with their hands out asking or like begging u could say', 'playerId': 'g2sowCsDmoh28sbgq'}, {'role': 'speaker', 'text': 'they are stood up', 'playerId': 'g2sowCsDmoh28sbgq'}]",92095,,9,spr-buttons,selection,[],
831,the only one,,,,,,,,,0.0-3.0-1.3,,[],,,,,93002,,10,spr-buttons,feedback,[],
831,the only one,24859,6_rotate_1,True,E,,,,ppvQxmgBzQniJp9K3,0.0-3.0-0.4,11,[],E,,,"[{'role': 'speaker', 'text': ""doesn't really resemble a person at all"", 'playerId': 'GK7qetdhhFYnmv9aj'}, {'role': 'listener', 'text': 'bottom left of it is a right angle triangle', 'playerId': 'CSEXDdvymSd6kiAKx'}, {'role': 'speaker', 'text': 'kind of like a an area graph with a palm tree or windmill on top', 'playerId': 'GK7qetdhhFYnmv9aj'}, {'role': 'listener', 'text': 'with right angles at shoulder and left foot', 'playerId': '67puAkQog5NuwZ6jP'}, {'role': 'listener', 'text': 'Bunny Ears', 'playerId': 'ZLky5mmoBFnQr6MPL'}, {'role': 'listener', 'text': 'So like someone sitting with their back to a wall,body facing to the right', 'playerId': 'S8HakjpPRMSJBgrys'}, {'role': 'speaker', 'text': 'two triangles (bunny ears) sticking out of head', 'playerId': 'GK7qetdhhFYnmv9aj'}, {'role': 'listener', 'text': 'sitting or standing', 'playerId': '67puAkQog5NuwZ6jP'}, {'role': 'listener', 'text': '<>', 'playerId': 'CSEXDdvymSd6kiAKx'}, {'role': 'speaker', 'text': 'of it was a person they would be sitting facing right', 'playerId': 'GK7qetdhhFYnmv9aj'}, {'role': 'listener', 'text': ""let's call this one bunny ears"", 'playerId': '67puAkQog5NuwZ6jP'}, {'role': 'speaker', 'text': ""i'm guessing what would normally be arms would be sticking out of head"", 'playerId': 'GK7qetdhhFYnmv9aj'}, {'role': 'listener', 'text': 'left side is basically a square, with a little square head on tp', 'playerId': 'CSEXDdvymSd6kiAKx'}]",117867,,11,spr-buttons,selection,[],
831,the only one,,,,,,,,,0.0-3.0-1.4,,[],,,,,118784,,12,spr-buttons,feedback,[],
831,the only one,18943,2_rotate_1,True,B,,,,FfK5QXXSw833vwHKX,0.0-3.0-0.5,2,[],B,,,"[{'role': 'speaker', 'text': 'facing right again', 'playerId': '6iMbQKiFyJ2YwPaeo'}, {'role': 'speaker', 'text': 'on their knees again', 'playerId': '6iMbQKiFyJ2YwPaeo'}, {'role': 'speaker', 'text': 'but this time it looks almost like wings', 'playerId': '6iMbQKiFyJ2YwPaeo'}]",137734,,13,spr-buttons,selection,[],
831,the only one,,,,,,,,,0.0-3.0-1.5,,[],,,,,138645,,14,spr-buttons,feedback,[],
831,the only one,10099,6_rotate_6,True,G,,,,57QkWqXASdPMDFRmA,0.0-3.0-0.6,7,[],G,,,"[{'role': 'speaker', 'text': 'messy one', 'playerId': 'G2cRaG8fekyPR6Msn'}, {'role': 'speaker', 'text': 'triangle s out to right', 'playerId': 'G2cRaG8fekyPR6Msn'}]",148750,,15,spr-buttons,selection,[],
831,the only one,,,,,,,,,0.0-3.0-1.6,,[],,,,,149670,,16,spr-buttons,feedback,[],
831,the only one,10402,2_rotate_6,True,I,,,,gjooqsuf2CPN5AWxi,0.0-3.0-0.7,9,[],I,,,"[{'role': 'speaker', 'text': 'facing left on one leg, other leg to the right', 'playerId': 'SzYY9C53Ne7cMaPHC'}]",160075,,17,spr-buttons,selection,[],
831,the only one,,,,,,,,,0.0-3.0-1.7,,[],,,,,160986,,18,spr-buttons,feedback,[],
831,the only one,3381,2_rotate_6,True,C,,,,GpF4Ge9YCd7ih3DFr,0.0-3.0-0.8,4,[],C,,,"[{'role': 'speaker', 'text': 'flying ghost', 'playerId': '9DEoh9BWkZFYxhECs'}]",164374,,19,spr-buttons,selection,[],
831,the only one,,,,,,,,,0.0-3.0-1.8,,[],,,,,165290,,20,spr-buttons,feedback,[],
831,the only one,22621,2_rotate_1,False,G,,,,CNET4E5tvYW37ZevE,0.0-3.0-0.9,9,[],I,,,"[{'role': 'speaker', 'text': 'small diamond shape connected to large obscure shape which has two small triangles within it', 'playerId': 'oNe96ojnutpRrwiFb'}, {'role': 'speaker', 'text': 'the triangles look like hands kind of', 'playerId': 'oNe96ojnutpRrwiFb'}, {'role': 'speaker', 'text': 'the person would be facing right', 'playerId': 'oNe96ojnutpRrwiFb'}]",187915,,21,spr-buttons,selection,[],
831,the only one,,,,,,,,,0.0-3.0-1.9,,[],,,,,188825,,22,spr-buttons,feedback,[],
831,the only one,6301,6_rotate_6,True,H,,,,CojwM8x8ZFDB9Y6HF,0.0-3.0-0.10,8,[],H,,,"[{'role': 'speaker', 'text': 'Bean', 'playerId': 'WJorh6puwn4WDQkk3'}, {'role': 'speaker', 'text': 'Triangle on bottom right side', 'playerId': 'WJorh6puwn4WDQkk3'}]",195135,,23,spr-buttons,selection,[],
831,the only one,,,,,,,,,0.0-3.0-1.10,,[],,,,,196059,,24,spr-buttons,feedback,[],
831,the only one,3982,6_rotate_6,True,G,,,,yPMhLu9xFgbC5dWLY,0.0-3.0-0.11,7,[],G,,,"[{'role': 'speaker', 'text': 'abstract one', 'playerId': 'awLY4XCudoFs3HNWo'}]",200047,,25,spr-buttons,selection,[],
831,the only one,,,,,,,,,0.0-3.0-1.11,,[],,,,,200953,,26,spr-buttons,feedback,[],
831,the only one,12594,2_rotate_6,False,B,,,,3A9hhryuHHeDQhoGy,0.0-3.0-0.12,9,[],I,,,"[{'role': 'speaker', 'text': 'one leg leaned out to left with arms spread out', 'playerId': 'FqnLSC6GxDNz6hS73'}]",213551,,27,spr-buttons,selection,[],
831,the only one,,,,,,,,,0.0-3.0-1.12,,[],,,,,214466,,28,spr-buttons,feedback,[],
831,the only one,14790,2_rotate_1,True,L,,,,pR4tb8CtSgCLLcMQY,0.0-3.0-0.13,0,[],L,,,"[{'role': 'speaker', 'text': 'a person squatting with arms in front', 'playerId': 'jMYJS2ANLmjazynqc'}]",229263,,29,spr-buttons,selection,[],
831,the only one,,,,,,,,,0.0-3.0-1.13,,[],,,,,230170,,30,spr-buttons,feedback,[],
831,the only one,10145,2_rotate_1,True,F,,,,hu2zy5uGrN4qJ7qqe,0.0-3.0-0.14,5,[],F,,,"[{'role': 'speaker', 'text': 'this guy is sitting on the ground with his knees bent on the left side', 'playerId': 'xwCpnpj4eoCiFYeCE'}, {'role': 'speaker', 'text': 'his head is tilted in towards his knees', 'playerId': 'xwCpnpj4eoCiFYeCE'}]",240323,,31,spr-buttons,selection,[],
831,the only one,,,,,,,,,0.0-3.0-1.14,,[],,,,,241235,,32,spr-buttons,feedback,[],
831,the only one,19221,6_rotate_1,True,G,,,,ezwBLtARszSJvSzM6,0.0-3.0-0.15,7,[],G,,,"[{'role': 'speaker', 'text': 'facing right', 'playerId': 'FmTqy959xZDgn7Cmo'}, {'role': 'speaker', 'text': 'standing', 'playerId': 'FmTqy959xZDgn7Cmo'}, {'role': 'speaker', 'text': 'trailing skirt behind', 'playerId': 'FmTqy959xZDgn7Cmo'}, {'role': 'speaker', 'text': 'arms raised', 'playerId': 'FmTqy959xZDgn7Cmo'}, {'role': 'listener', 'text': 'like a flamenco dancer', 'playerId': 'HA5mxic6y3Jq9ujGy'}, {'role': 'listener', 'text': 'head leant back', 'playerId': 'Yu2LsZeedD2nHmthZ'}, {'role': 'speaker', 'text': 'yes leg to right in air and head leant back', 'playerId': 'FmTqy959xZDgn7Cmo'}]",260463,,33,spr-buttons,selection,[],
831,the only one,,,,,,,,,0.0-3.0-1.15,,[],,,,,261377,,34,spr-buttons,feedback,[],
831,the only one,10147,2_rotate_6,False,B,,,,79swBZFsJnrQuHvhd,0.0-3.0-0.16,4,[],C,,,"[{'role': 'speaker', 'text': 'man with arms outstretched, right arm broken', 'playerId': 'b6WTJQoLvhx9dhQWk'}]",271530,,35,spr-buttons,selection,[],
831,the only one,,,,,,,,,0.0-3.0-1.16,,[],,,,,272448,,36,spr-buttons,feedback,[],
831,the only one,2932,6_rotate_6,True,I,,,,7i3mnwWykEA95fvyk,0.0-3.0-0.17,9,[],I,,,"[{'role': 'speaker', 'text': 'ice skater', 'playerId': '6bYzncKaESZG3XQY3'}]",275386,,37,spr-buttons,selection,[],
831,the only one,,,,,,,,,0.0-3.0-1.17,,[],,,,,276306,,38,spr-buttons,feedback,[],
831,the only one,11007,6_rotate_6,False,K,,,,57QkWqXASdPMDFRmA,0.0-3.0-0.18,0,[],L,,,"[{'role': 'speaker', 'text': 'facing right', 'playerId': 'G2cRaG8fekyPR6Msn'}, {'role': 'speaker', 'text': 'full kneeling holding tray', 'playerId': 'G2cRaG8fekyPR6Msn'}, {'role': 'speaker', 'text': 'upright head', 'playerId': 'G2cRaG8fekyPR6Msn'}]",287314,,39,spr-buttons,selection,[],
831,the only one,,,,,,,,,0.0-3.0-1.18,,[],,,,,288235,,40,spr-buttons,feedback,[],
831,the only one,11941,2_rotate_6,True,F,,,,3A9hhryuHHeDQhoGy,0.0-3.0-0.19,5,[],F,,,"[{'role': 'speaker', 'text': 'seating down facing left with only legs visible', 'playerId': 'FqnLSC6GxDNz6hS73'}]",300183,,41,spr-buttons,selection,[],
831,the only one,,,,,,,,,0.0-3.0-1.19,,[],,,,,301106,,42,spr-buttons,feedback,[],
831,the only one,11703,6_rotate_1,False,G,,,,6bkpQbsv6wvHWczvB,0.0-3.0-0.20,5,[],F,,,"[{'role': 'speaker', 'text': 'this one looks like a guy leaning backwards resting on his arms face the left of your screen, and they have a rotated square and a triangle on their head', 'playerId': 'pNzsWQrabqXgTRTpu'}, {'role': 'speaker', 'text': 'their ""arm"" is an upside down triangle', 'playerId': 'pNzsWQrabqXgTRTpu'}, {'role': 'listener', 'text': 'like a guy is falling backward', 'playerId': '5LJfKFwCaZ5exES48'}, {'role': 'speaker', 'text': 'no like they are leaning backwards', 'playerId': 'pNzsWQrabqXgTRTpu'}, {'role': 'speaker', 'text': 'half leaning half laying', 'playerId': 'pNzsWQrabqXgTRTpu'}, {'role': 'speaker', 'text': 'there is an upside down triangle for their arm', 'playerId': 'pNzsWQrabqXgTRTpu'}, {'role': 'speaker', 'text': 'and they are facing the left of your screen', 'playerId': 'pNzsWQrabqXgTRTpu'}, {'role': 'speaker', 'text': 'there is a rotated square on the left side of their head', 'playerId': 'pNzsWQrabqXgTRTpu'}, {'role': 'speaker', 'text': 'and a triangle rotated 45 degrees on the left side of their head', 'playerId': 'pNzsWQrabqXgTRTpu'}]",312819,,43,spr-buttons,selection,[],
831,the only one,,,,,,,,,0.0-3.0-1.20,,[],,,,,313741,,44,spr-buttons,feedback,[],
831,the only one,10183,2_rotate_6,True,A,,,,pR4tb8CtSgCLLcMQY,0.0-3.0-0.21,10,[],A,,,"[{'role': 'speaker', 'text': 'on one leg other in front head back', 'playerId': 'zzGaoZ3hK2qpc5XR6'}]",323930,,45,spr-buttons,selection,[],
831,the only one,,,,,,,,,0.0-3.0-1.21,,[],,,,,324842,,46,spr-buttons,feedback,[],
831,the only one,4907,6_rotate_6,False,K,,,,cLaK88862bv7MHMuQ,0.0-3.0-0.22,4,[],C,,,"[{'role': 'speaker', 'text': 'diamond on diamond head', 'playerId': 'gd4Mbi8awyKfZgvka'}]",329755,,47,spr-buttons,selection,[],
831,the only one,,,,,,,,,0.0-3.0-1.22,,[],,,,,330672,,48,spr-buttons,feedback,[],
831,the only one,26314,6_rotate_1,False,B,,,,6bkpQbsv6wvHWczvB,0.0-3.0-0.23,7,[],G,,,"[{'role': 'speaker', 'text': 'this one looks like an animal facing the left of the screen', 'playerId': 'pNzsWQrabqXgTRTpu'}, {'role': 'speaker', 'text': 'with a pointy nose', 'playerId': 'pNzsWQrabqXgTRTpu'}, {'role': 'speaker', 'text': ""and a square on their head that's only slightly angled"", 'playerId': 'pNzsWQrabqXgTRTpu'}, {'role': 'speaker', 'text': 'and a triangle on the back of its head rotated 90 degrees', 'playerId': 'pNzsWQrabqXgTRTpu'}, {'role': 'speaker', 'text': 'with the flat piece facing the LEFT of your screen', 'playerId': 'pNzsWQrabqXgTRTpu'}, {'role': 'listener', 'text': 'hockey player', 'playerId': '5LJfKFwCaZ5exES48'}, {'role': 'speaker', 'text': 'no looks like an animal with a pointy nose facing the left of the screen', 'playerId': 'pNzsWQrabqXgTRTpu'}, {'role': 'listener', 'text': ""He's like looking at his feet"", 'playerId': 'Chjp2rtMWxtmo8NPc'}, {'role': 'speaker', 'text': 'it almost looks shorter than the rest', 'playerId': 'pNzsWQrabqXgTRTpu'}, {'role': 'speaker', 'text': 'looking straight to the left of your screen', 'playerId': 'pNzsWQrabqXgTRTpu'}, {'role': 'speaker', 'text': 'just a little triangle for feet', 'playerId': 'pNzsWQrabqXgTRTpu'}, {'role': 'speaker', 'text': 'that are also facing the left of the screen', 'playerId': 'pNzsWQrabqXgTRTpu'}, {'role': 'speaker', 'text': 'there is a square and a triangle on the top of its head', 'playerId': 'pNzsWQrabqXgTRTpu'}]",356994,,49,spr-buttons,selection,[],
831,the only one,,,,,,,,,0.0-3.0-1.23,,[],,,,,357909,,50,spr-buttons,feedback,[],
831,the only one,3739,6_rotate_6,True,H,,,,nySo3NiJX7Kres7zm,0.0-3.0-0.24,8,[],H,,,"[{'role': 'speaker', 'text': 'Wrapped up baby', 'playerId': 'ugNcH6z9oWCzD3uHh'}]",361655,,51,spr-buttons,selection,[],
831,the only one,,,,,,,,,0.0-3.0-1.24,,[],,,,,362564,,52,spr-buttons,feedback,[],
831,the only one,5729,2_rotate_6,True,G,,,,FfK5QXXSw833vwHKX,0.0-3.0-0.25,7,[],G,,,"[{'role': 'speaker', 'text': 'high heel', 'playerId': 'psDWD9d3xQGdFFP7Q'}]",368299,,53,spr-buttons,selection,[],
831,the only one,,,,,,,,,0.0-3.0-1.25,,[],,,,,369210,,54,spr-buttons,feedback,[],
831,the only one,10058,6_rotate_1,False,K,,,,nySo3NiJX7Kres7zm,0.0-3.0-0.26,1,[],D,,,"[{'role': 'speaker', 'text': 'like someone on their knees with arms out to the right', 'playerId': 'iMBFSMZFcXNsgL6Hp'}, {'role': 'speaker', 'text': 'head upwards', 'playerId': 'iMBFSMZFcXNsgL6Hp'}, {'role': 'listener', 'text': 'like oliver begging for more food', 'playerId': 'LqynML5vHZbk5fMhT'}, {'role': 'speaker', 'text': 'sort of yes, but the one where legs are fully on floor', 'playerId': 'iMBFSMZFcXNsgL6Hp'}, {'role': 'speaker', 'text': 'not the one where the knees just look bent', 'playerId': 'iMBFSMZFcXNsgL6Hp'}]",379275,,55,spr-buttons,selection,[],
831,the only one,,,,,,,,,0.0-3.0-1.26,,[],,,,,380196,,56,spr-buttons,feedback,[],
831,the only one,17121,2_rotate_6,False,G,,,,52Z92z3wj7TxhCe3X,0.0-3.0-0.27,9,[],I,,,"[{'role': 'speaker', 'text': 'your seal, my dancer', 'playerId': 'jDNNo5YT7r2NRqawS'}]",397324,,57,spr-buttons,selection,[],
831,the only one,,,,,,,,,0.0-3.0-1.27,,[],,,,,398239,,58,spr-buttons,feedback,[],
831,the only one,8238,6_rotate_1,True,D,,,,6bkpQbsv6wvHWczvB,0.0-3.0-0.28,1,[],D,,,"[{'role': 'speaker', 'text': 'it looks like a guy is holding a cup of soup facing to the left of your screen', 'playerId': 'pNzsWQrabqXgTRTpu'}]",406487,,59,spr-buttons,selection,[],
831,the only one,,,,,,,,,0.0-3.0-1.28,,[],,,,,407402,,60,spr-buttons,feedback,[],
831,the only one,4215,2_rotate_1,True,H,,,,GpF4Ge9YCd7ih3DFr,0.0-3.0-0.29,8,[],H,,,"[{'role': 'speaker', 'text': 'diamond head in center', 'playerId': 'cjtnTXrerxbK7pi39'}, {'role': 'speaker', 'text': 'no arms', 'playerId': 'cjtnTXrerxbK7pi39'}, {'role': 'speaker', 'text': '""foot"" facing right', 'playerId': 'cjtnTXrerxbK7pi39'}]",411626,,61,spr-buttons,selection,[],
831,the only one,,,,,,,,,0.0-3.0-1.29,,[],,,,,412537,,62,spr-buttons,feedback,[],
831,the only one,49560,6_rotate_1,False,G,,,,4eigY5GthWZfxug8D,0.0-3.0-0.30,10,[],A,,,"[{'role': 'speaker', 'text': 'arms extended', 'playerId': 'W2FcmbCnXZFmMLy9v'}, {'role': 'speaker', 'text': 'on leg forward', 'playerId': 'W2FcmbCnXZFmMLy9v'}, {'role': 'speaker', 'text': 'one leg backwards', 'playerId': 'W2FcmbCnXZFmMLy9v'}, {'role': 'speaker', 'text': 'both legs on ground', 'playerId': 'W2FcmbCnXZFmMLy9v'}, {'role': 'speaker', 'text': 'right leg slightly higher', 'playerId': 'W2FcmbCnXZFmMLy9v'}, {'role': 'speaker', 'text': 'arms are head level', 'playerId': 'W2FcmbCnXZFmMLy9v'}, {'role': 'speaker', 'text': 'pointed slightly up', 'playerId': 'W2FcmbCnXZFmMLy9v'}, {'role': 'speaker', 'text': 'back leg is thicc', 'playerId': 'W2FcmbCnXZFmMLy9v'}, {'role': 'speaker', 'text': 'front leg is a triangle', 'playerId': 'W2FcmbCnXZFmMLy9v'}, {'role': 'listener', 'text': 'she thicc', 'playerId': '9b8gwadnyYhRSdEC7'}, {'role': 'listener', 'text': 'super thicc', 'playerId': 'T8RuPGkjXkXWtsHrf'}]",462103,,63,spr-buttons,selection,[],
831,the only one,,,,,,,,,0.0-3.0-1.30,,[],,,,,463014,,64,spr-buttons,feedback,[],
831,the only one,16725,2_rotate_1,True,B,,,,hu2zy5uGrN4qJ7qqe,0.0-3.0-0.31,2,[],B,,,"[{'role': 'speaker', 'text': 'this looks like they are sitting on the ground with their arms in a triangle shape pointing out towards the left', 'playerId': 'xwCpnpj4eoCiFYeCE'}, {'role': 'speaker', 'text': 'they also have a triangle attached to the head', 'playerId': 'xwCpnpj4eoCiFYeCE'}]",479746,,65,spr-buttons,selection,[],
831,the only one,,,,,,,,,0.0-3.0-1.31,,[],,,,,480665,,66,spr-buttons,feedback,[],
831,the only one,10219,6_rotate_6,True,L,,,,k4otZKu35xehtF93F,0.0-3.0-0.32,0,[],L,,,"[{'role': 'speaker', 'text': 'praying right, but feet flat, not behind', 'playerId': 'ybQ6avjhBa46uuw8Z'}, {'role': 'listener', 'text': 'zig zag man', 'playerId': '2uEiLua7RSNzB3CP8'}, {'role': 'listener', 'text': 'Back as flat as mine hurts rite now', 'playerId': 'Sb5t7YLhHirE7JfNH'}]",490890,,67,spr-buttons,selection,[],
831,the only one,,,,,,,,,0.0-3.0-1.32,,[],,,,,491800,,68,spr-buttons,feedback,[],
831,the only one,6916,2_rotate_6,True,C,,,,2928FF7GcrkeFiDkh,0.0-3.0-0.33,4,[],C,,,"[{'role': 'speaker', 'text': 'leaning left Y arms', 'playerId': '5L7PZWTLhnYMGQE8b'}]",498722,,69,spr-buttons,selection,[],
831,the only one,,,,,,,,,0.0-3.0-1.33,,[],,,,,499638,,70,spr-buttons,feedback,[],
831,the only one,1626,2_rotate_6,True,H,,,,52Z92z3wj7TxhCe3X,0.0-3.0-0.34,8,[],H,,,"[{'role': 'speaker', 'text': 'no arms', 'playerId': 'jDNNo5YT7r2NRqawS'}]",501269,,71,spr-buttons,selection,[],
831,the only one,,,,,,,,,0.0-3.0-1.34,,[],,,,,502187,,72,spr-buttons,feedback,[],
831,the only one,5240,2_rotate_6,True,C,,,,79swBZFsJnrQuHvhd,0.0-3.0-0.35,4,[],C,,,"[{'role': 'speaker', 'text': 'swaying to the left', 'playerId': 'b6WTJQoLvhx9dhQWk'}]",507434,,73,spr-buttons,selection,[],
831,the only one,,,,,,,,,0.0-3.0-1.35,,[],,,,,508356,,74,spr-buttons,feedback,[],
831,the only one,6556,6_rotate_6,True,F,,,,cLaK88862bv7MHMuQ,0.0-3.0-0.36,5,[],F,,,"[{'role': 'speaker', 'text': 'sad man', 'playerId': 'gd4Mbi8awyKfZgvka'}, {'role': 'speaker', 'text': 'knees pointing upwards', 'playerId': 'gd4Mbi8awyKfZgvka'}]",514918,,75,spr-buttons,selection,[],
831,the only one,,,,,,,,,0.0-3.0-1.36,,[],,,,,515828,,76,spr-buttons,feedback,[],
831,the only one,6210,6_rotate_1,True,H,,,,4eigY5GthWZfxug8D,0.0-3.0-0.37,8,[],H,,,"[{'role': 'speaker', 'text': 'this dudes in a sleeping bag', 'playerId': 'W2FcmbCnXZFmMLy9v'}, {'role': 'listener', 'text': 'is he really cuddled up', 'playerId': 'T8RuPGkjXkXWtsHrf'}, {'role': 'listener', 'text': 'like beside a fire', 'playerId': 'T8RuPGkjXkXWtsHrf'}, {'role': 'speaker', 'text': 'like a worm with a triangle head', 'playerId': 'W2FcmbCnXZFmMLy9v'}, {'role': 'speaker', 'text': 'looks real cosy', 'playerId': 'W2FcmbCnXZFmMLy9v'}, {'role': 'listener', 'text': 'like a caterpillar', 'playerId': 'T8RuPGkjXkXWtsHrf'}, {'role': 'speaker', 'text': ""he's got like"", 'playerId': 'W2FcmbCnXZFmMLy9v'}, {'role': 'listener', 'text': 'is he like slightly bent to the right', 'playerId': '9b8gwadnyYhRSdEC7'}, {'role': 'speaker', 'text': 'most of his body is straight', 'playerId': 'W2FcmbCnXZFmMLy9v'}, {'role': 'listener', 'text': 'and his little wormy end is pointing right >', 'playerId': 'T8RuPGkjXkXWtsHrf'}, {'role': 'speaker', 'text': 'then his feet are like point out to the right', 'playerId': 'W2FcmbCnXZFmMLy9v'}, {'role': 'speaker', 'text': 'yeah little wormy end haha', 'playerId': 'W2FcmbCnXZFmMLy9v'}, {'role': 'speaker', 'text': ""he's got no arms"", 'playerId': 'W2FcmbCnXZFmMLy9v'}, {'role': 'speaker', 'text': ""he's kinda sitting"", 'playerId': 'W2FcmbCnXZFmMLy9v'}, {'role': 'listener', 'text': 'no ears right', 'playerId': '9b8gwadnyYhRSdEC7'}, {'role': 'speaker', 'text': 'no ears', 'playerId': 'W2FcmbCnXZFmMLy9v'}, {'role': 'speaker', 'text': ""like he's got legs"", 'playerId': 'W2FcmbCnXZFmMLy9v'}]",522042,,77,spr-buttons,selection,[],
831,the only one,,,,,,,,,0.0-3.0-1.37,,[],,,,,522953,,78,spr-buttons,feedback,[],
831,the only one,9344,6_rotate_6,True,B,,,,CojwM8x8ZFDB9Y6HF,0.0-3.0-0.38,2,[],B,,,"[{'role': 'speaker', 'text': 'Diamond on top, two triangles below with small gap between them', 'playerId': 'WJorh6puwn4WDQkk3'}, {'role': 'listener', 'text': 'lying down dog', 'playerId': 'qnjhZ585k3LjuELyR'}, {'role': 'speaker', 'text': 'Could be a person kneeling right, with small legs pointing out to the left', 'playerId': 'WJorh6puwn4WDQkk3'}]",532306,,79,spr-buttons,selection,[],
831,the only one,,,,,,,,,0.0-3.0-1.38,,[],,,,,533225,,80,spr-buttons,feedback,[],
831,the only one,3265,2_rotate_6,True,H,,,,of4gY8Bu37PbmkPee,0.0-3.0-0.39,8,[],H,,,"[{'role': 'speaker', 'text': 'no legs', 'playerId': '7NrLvX7rfwB2y54ZF'}, {'role': 'speaker', 'text': 'protrudes on right', 'playerId': '7NrLvX7rfwB2y54ZF'}]",536498,,81,spr-buttons,selection,[],
831,the only one,,,,,,,,,0.0-3.0-1.39,,[],,,,,537413,,82,spr-buttons,feedback,[],
831,the only one,9574,2_rotate_1,True,F,,,,YyAyuHf7S76wsbCA6,0.0-3.0-0.40,5,[],F,,,"[{'role': 'speaker', 'text': 'select the figure sitting down', 'playerId': 'fAMhn4Ein8YivGti7'}, {'role': 'speaker', 'text': 'hunched back', 'playerId': 'fAMhn4Ein8YivGti7'}, {'role': 'speaker', 'text': 'facing left', 'playerId': 'fAMhn4Ein8YivGti7'}, {'role': 'speaker', 'text': 'triangle on top', 'playerId': 'fAMhn4Ein8YivGti7'}, {'role': 'speaker', 'text': 'polygon back', 'playerId': 'fAMhn4Ein8YivGti7'}, {'role': 'speaker', 'text': 'then legs', 'playerId': 'fAMhn4Ein8YivGti7'}]",546995,,83,spr-buttons,selection,[],
831,the only one,,,,,,,,,0.0-3.0-1.40,,[],,,,,547915,,84,spr-buttons,feedback,[],
831,the only one,26153,6_rotate_1,False,K,,,,aFykNpfLr9BqKdsFL,0.0-3.0-0.41,0,[],L,,,"[{'role': 'speaker', 'text': 'looks like a big mouth open towards the right', 'playerId': 'qioaDCfDaa28TFEA8'}, {'role': 'listener', 'text': 'Facing left or right', 'playerId': 'PGAtCk8Ks2aJygddG'}, {'role': 'listener', 'text': 'feet pointing to the left', 'playerId': 'NWj66Bd2kapty9H9h'}, {'role': 'speaker', 'text': 'has a diamond head', 'playerId': 'qioaDCfDaa28TFEA8'}, {'role': 'speaker', 'text': 'no ears', 'playerId': 'qioaDCfDaa28TFEA8'}, {'role': 'listener', 'text': 'triangular body', 'playerId': 'PXh3QTj6cPCJnZWk5'}, {'role': 'speaker', 'text': 'looks like a less than sign', 'playerId': 'qioaDCfDaa28TFEA8'}]",574075,,85,spr-buttons,selection,[],
831,the only one,,,,,,,,,0.0-3.0-1.41,,[],,,,,574985,,86,spr-buttons,feedback,[],
831,the only one,14111,6_rotate_1,True,G,,,,CojwM8x8ZFDB9Y6HF,0.0-3.0-0.42,7,[],G,,,"[{'role': 'speaker', 'text': 'it kind of looks like someone doing karate maybe', 'playerId': 'EzNkXZLQTRPpggasi'}, {'role': 'speaker', 'text': 'like one leg is massive along the bottom and the other one is tiny', 'playerId': 'EzNkXZLQTRPpggasi'}, {'role': 'speaker', 'text': 'the head is at the top left', 'playerId': 'EzNkXZLQTRPpggasi'}, {'role': 'listener', 'text': 'Left part looks like a slice of cantaloupe', 'playerId': 'qnjhZ585k3LjuELyR'}]",589102,,87,spr-buttons,selection,[],
831,the only one,,,,,,,,,0.0-3.0-1.42,,[],,,,,590010,,88,spr-buttons,feedback,[],
831,the only one,4710,6_rotate_6,True,D,,,,qzNuN6yp4HDWzko6T,0.0-3.0-0.43,1,[],D,,,"[{'role': 'speaker', 'text': 'Holding a box to the left', 'playerId': 'raCR7oL7mP22ToCrY'}]",594727,,89,spr-buttons,selection,[],
831,the only one,,,,,,,,,0.0-3.0-1.43,,[],,,,,595646,,90,spr-buttons,feedback,[],
831,the only one,7697,6_rotate_1,True,J,,,,57QkWqXASdPMDFRmA,0.0-3.0-0.44,3,[],J,,,"[{'role': 'speaker', 'text': 'body is a square with a bite taken from it on the right', 'playerId': 'foLY9seHz9WKw4HPk'}, {'role': 'speaker', 'text': 'diamond head', 'playerId': 'foLY9seHz9WKw4HPk'}, {'role': 'speaker', 'text': 'bottom of the bite could look like feet', 'playerId': 'foLY9seHz9WKw4HPk'}, {'role': 'listener', 'text': 'triangle pointing right', 'playerId': 'eXYo8Pa5AjP8RZ5ED'}, {'role': 'listener', 'text': 'bite out of bottom right', 'playerId': 'PhukZyyqKFDxhsjYv'}, {'role': 'listener', 'text': 'arm is out to his right', 'playerId': '4G9hab5MLzr3hzwbK'}, {'role': 'speaker', 'text': 'yes to the right', 'playerId': 'foLY9seHz9WKw4HPk'}, {'role': 'listener', 'text': 'square left shoulder', 'playerId': 'PhukZyyqKFDxhsjYv'}, {'role': 'speaker', 'text': 'more of the bite is on the bottom', 'playerId': 'foLY9seHz9WKw4HPk'}, {'role': 'speaker', 'text': 'yes whole left side is a square', 'playerId': 'foLY9seHz9WKw4HPk'}]",603350,,91,spr-buttons,selection,[],
831,the only one,,,,,,,,,0.0-3.0-1.44,,[],,,,,604258,,92,spr-buttons,feedback,[],
831,the only one,4194,6_rotate_1,True,D,,,,7i3mnwWykEA95fvyk,0.0-3.0-0.45,1,[],D,,,"[{'role': 'speaker', 'text': 'holding object out to left', 'playerId': 'zKzojrwHz2R6wEi3M'}, {'role': 'listener', 'text': 'like a basket', 'playerId': '6bYzncKaESZG3XQY3'}, {'role': 'speaker', 'text': 'left foot pointing out to left', 'playerId': 'zKzojrwHz2R6wEi3M'}, {'role': 'speaker', 'text': 'basket yes', 'playerId': 'zKzojrwHz2R6wEi3M'}, {'role': 'listener', 'text': 'triangle on the back', 'playerId': 'xMcZMZoajc3znxvFH'}, {'role': 'listener', 'text': 'left foot in the air', 'playerId': 'HPXeHqtHCBw7Cg7WX'}, {'role': 'speaker', 'text': 'no feet in the air', 'playerId': 'zKzojrwHz2R6wEi3M'}, {'role': 'speaker', 'text': 'person just standing', 'playerId': 'zKzojrwHz2R6wEi3M'}, {'role': 'speaker', 'text': 'bottom corner right angle', 'playerId': 'zKzojrwHz2R6wEi3M'}, {'role': 'speaker', 'text': 'right corner', 'playerId': 'zKzojrwHz2R6wEi3M'}]",608459,,93,spr-buttons,selection,[],
831,the only one,,,,,,,,,0.0-3.0-1.45,,[],,,,,609371,,94,spr-buttons,feedback,[],
831,the only one,11642,2_rotate_1,False,B,,,,GpF4Ge9YCd7ih3DFr,0.0-3.0-0.46,0,[],L,,,"[{'role': 'speaker', 'text': 'diamond head, kneeling facing right it looks like, but could honestly go both ways', 'playerId': 'cjtnTXrerxbK7pi39'}, {'role': 'speaker', 'text': 'feet facing left', 'playerId': 'cjtnTXrerxbK7pi39'}, {'role': 'speaker', 'text': 'has a triangle on right side', 'playerId': 'cjtnTXrerxbK7pi39'}, {'role': 'speaker', 'text': 'with the corner of the triangle meeting the corner of the diamond head', 'playerId': 'cjtnTXrerxbK7pi39'}]",621019,,95,spr-buttons,selection,[],
831,the only one,,,,,,,,,0.0-3.0-1.46,,[],,,,,621939,,96,spr-buttons,feedback,[],
831,the only one,8918,6_rotate_1,True,K,,,,k4otZKu35xehtF93F,0.0-3.0-0.47,6,[],K,,,"[{'role': 'speaker', 'text': 'kneeled down and praying, but with feet up', 'playerId': '2uEiLua7RSNzB3CP8'}]",630866,,97,spr-buttons,selection,[],
831,the only one,,,,,,,,,0.0-3.0-1.47,,[],,,,,631785,,98,spr-buttons,feedback,[],
831,the only one,9071,2_rotate_1,True,C,,,,52Z92z3wj7TxhCe3X,0.0-3.0-0.48,4,[],C,,,"[{'role': 'speaker', 'text': ""Shoulders up - sort of like 'why me ' - box head is further to the left"", 'playerId': 'YjxxewuyohjoySxSn'}]",640859,,99,spr-buttons,selection,[],
831,the only one,,,,,,,,,0.0-3.0-1.48,,[],,,,,641777,,100,spr-buttons,feedback,[],
831,the only one,5723,2_rotate_6,False,K,,,,52Z92z3wj7TxhCe3X,0.0-3.0-0.49,0,[],L,,,"[{'role': 'speaker', 'text': 'kneeling, book on palms, small triangle pointing left at top of back', 'playerId': 'jDNNo5YT7r2NRqawS'}, {'role': 'speaker', 'text': 'facing right', 'playerId': 'jDNNo5YT7r2NRqawS'}]",647507,,101,spr-buttons,selection,[],
831,the only one,,,,,,,,,0.0-3.0-1.49,,[],,,,,648413,,102,spr-buttons,feedback,[],
831,the only one,16109,2_rotate_1,False,J,,,,2928FF7GcrkeFiDkh,0.0-3.0-0.50,0,[],L,,,"[{'role': 'speaker', 'text': 'Left side body is vertical line Arm to the right, leg to the right Arm extends further than the leg', 'playerId': 'okkXLvTuqNbsZkBZ2'}]",664531,,103,spr-buttons,selection,[],
831,the only one,,,,,,,,,0.0-3.0-1.50,,[],,,,,665444,,104,spr-buttons,feedback,[],
831,the only one,12515,2_rotate_1,True,D,,,,pAtG6vt3AyaJypa2j,0.0-3.0-0.51,1,[],D,,,"[{'role': 'speaker', 'text': 'It stands completely upright', 'playerId': '3D7MbrSZL62xJBhib'}, {'role': 'speaker', 'text': 'The right side is completely straight', 'playerId': '3D7MbrSZL62xJBhib'}, {'role': 'listener', 'text': 'is there a small triangle on the bottom left part', 'playerId': 'kNihCF3o2LNDkwQs5'}, {'role': 'speaker', 'text': ""Yes it's connected to the main body, not a separate triangle though"", 'playerId': '3D7MbrSZL62xJBhib'}, {'role': 'speaker', 'text': 'So the head is a diamond, pointing straight up', 'playerId': '3D7MbrSZL62xJBhib'}]",677963,,105,spr-buttons,selection,[],
831,the only one,,,,,,,,,0.0-3.0-1.51,,[],,,,,678878,,106,spr-buttons,feedback,[],
831,the only one,1302,6_rotate_6,True,I,,,,yPMhLu9xFgbC5dWLY,0.0-3.0-0.52,9,[],I,,,"[{'role': 'speaker', 'text': 'ice skater', 'playerId': 'awLY4XCudoFs3HNWo'}]",680187,,107,spr-buttons,selection,[],
831,the only one,,,,,,,,,0.0-3.0-1.52,,[],,,,,681104,,108,spr-buttons,feedback,[],
831,the only one,5166,6_rotate_1,True,C,,,,7i3mnwWykEA95fvyk,0.0-3.0-0.53,4,[],C,,,"[{'role': 'speaker', 'text': 'person leaning to the left', 'playerId': 'zKzojrwHz2R6wEi3M'}, {'role': 'speaker', 'text': 'both arms up', 'playerId': 'zKzojrwHz2R6wEi3M'}, {'role': 'listener', 'text': 'yoga pose', 'playerId': 'xMcZMZoajc3znxvFH'}, {'role': 'speaker', 'text': 'cant see legs', 'playerId': 'zKzojrwHz2R6wEi3M'}, {'role': 'listener', 'text': 'Ghost', 'playerId': 'bHbD5d8g4wtKseBcX'}, {'role': 'speaker', 'text': 'bit like ghost', 'playerId': 'zKzojrwHz2R6wEi3M'}, {'role': 'listener', 'text': 'ah flying thing', 'playerId': 'xMcZMZoajc3znxvFH'}, {'role': 'listener', 'text': 'diamond head tilted to left', 'playerId': 'HPXeHqtHCBw7Cg7WX'}, {'role': 'speaker', 'text': 'slopsided ghost', 'playerId': 'zKzojrwHz2R6wEi3M'}]",686271,,109,spr-buttons,selection,[],
831,the only one,,,,,,,,,0.0-3.0-1.53,,[],,,,,687178,,110,spr-buttons,feedback,[],
831,the only one,3183,2_rotate_6,True,A,,,,FfK5QXXSw833vwHKX,0.0-3.0-0.54,10,[],A,,,"[{'role': 'speaker', 'text': 'zombie', 'playerId': 'psDWD9d3xQGdFFP7Q'}]",690367,,111,spr-buttons,selection,[],
831,the only one,,,,,,,,,0.0-3.0-1.54,,[],,,,,691284,,112,spr-buttons,feedback,[],
831,the only one,7449,6_rotate_1,True,K,,,,ppvQxmgBzQniJp9K3,0.0-3.0-0.55,6,[],K,,,"[{'role': 'speaker', 'text': 'like someone kneeling praying with arms pointing right', 'playerId': 'GK7qetdhhFYnmv9aj'}, {'role': 'listener', 'text': 'pointy back', 'playerId': '67puAkQog5NuwZ6jP'}, {'role': 'listener', 'text': 'like maybe a kneeling ice skater or toes pointing up', 'playerId': 'CSEXDdvymSd6kiAKx'}, {'role': 'speaker', 'text': 'head joins onto another diamond shape', 'playerId': 'GK7qetdhhFYnmv9aj'}, {'role': 'speaker', 'text': 'although 2nd diamond blends into body', 'playerId': 'GK7qetdhhFYnmv9aj'}, {'role': 'listener', 'text': 'feet pointing to the sky', 'playerId': 'S8HakjpPRMSJBgrys'}]",698739,,113,spr-buttons,selection,[],
831,the only one,,,,,,,,,0.0-3.0-1.55,,[],,,,,699654,,114,spr-buttons,feedback,[],
831,the only one,10715,6_rotate_6,False,A,,,,4mKoevW3ykd2FDr7L,0.0-3.0-0.56,9,[],I,,,"[{'role': 'speaker', 'text': 'one foot on ground', 'playerId': 'vwpmmXPfWPvNcd9RA'}, {'role': 'speaker', 'text': 'one foot 45 in the air on left', 'playerId': 'vwpmmXPfWPvNcd9RA'}, {'role': 'speaker', 'text': 'detailed shoe', 'playerId': 'vwpmmXPfWPvNcd9RA'}, {'role': 'listener', 'text': 'Crooked wing one', 'playerId': 'jjY6d6CreGdbCxRHY'}]",710378,,115,spr-buttons,selection,[],
831,the only one,,,,,,,,,0.0-3.0-1.56,,[],,,,,711294,,116,spr-buttons,feedback,[],
831,the only one,13735,6_rotate_6,False,F,,,,znSiJdhs7sWk5xhgA,0.0-3.0-0.57,11,[],E,,,"[{'role': 'speaker', 'text': 'sitting under a tree', 'playerId': '4fTnjYS9Cge7Tv7ou'}]",725039,,117,spr-buttons,selection,[],
831,the only one,,,,,,,,,0.0-3.0-1.57,,[],,,,,725947,,118,spr-buttons,feedback,[],
831,the only one,12617,6_rotate_6,False,I,,,,qzNuN6yp4HDWzko6T,0.0-3.0-0.58,10,[],A,,,"[{'role': 'speaker', 'text': 'Karate', 'playerId': 'raCR7oL7mP22ToCrY'}]",738571,,119,spr-buttons,selection,[],
831,the only one,,,,,,,,,0.0-3.0-1.58,,[],,,,,739476,,120,spr-buttons,feedback,[],
831,the only one,4614,2_rotate_1,True,A,,,,dBAksjEwZCAZRyqJk,0.0-3.0-0.59,10,[],A,,,"[{'role': 'speaker', 'text': 'looks like their head is tilted back and have their hands out with one foot off the ground', 'playerId': 'g2sowCsDmoh28sbgq'}]",744099,,121,spr-buttons,selection,[],
831,the only one,,,,,,,,,0.0-3.0-1.59,,[],,,,,745008,,122,spr-buttons,feedback,[],
831,the only one,,,,,,,,,0.0-4.0,"{'other': 'N/A', 'errors': 'No', 'length': 'I would have done more, it was quite fun.', 'interface': 'No', 'understand': 'No everything was clear.'}",38202,,,,,783224,,123,survey-text,,,
831,the only one,,,,,,,,,0.0-5.0,0,5593,,"<h2>Many thanks for participating!</h2><p>We are generally interested in how people form conventions, such as shared 'nicknames' for images. Here, we are studying when these shared 'nicknames' are understandable to people who were not part of the group that created the nickname.</p><h1>Press continue to be redirected to Prolific. </h1>",,,788818,,124,html-button-response,,,
842,the only one,,,,,[],[],[],,0.0-0.0,,,,,True,,60,False,0,preload,,,
842,the only one,,,,,,,,,0.0-1.0,0,10483,," <center><img width=""300px"" src=""assets/stanford.png"" /></center><div id=""legal""></br>By answering the following questions, you are participating in a study being performed by cognitive scientists in the Stanford Department of Psychology. If you have questions about this research, please contact us at  <a href=""mailto://languagecoglab@gmail.com.""> languagecoglab@gmail.com</a>.You must be at least 18 years old to participate. Your participation in this research is voluntary. You may decline to answer any or all of the following questions. You may decline further participation, at any time, without adverse consequences. Your anonymity is assured; the researchers who have requested your participation will not receive any personal information about you. </div></br>",,,10546,,1,html-button-response,,,
842,the only one,,,,,,,,,0.0-2.0,0,44517,,"<h3>Please read these instructions carefully!</h3> </br><div id=""intro""> <p>In this task, you will see a <b>transcript of a conversation</b> some previous participants had where a <b>speaker identified one of the images to some listeners</b>.</p></br><center><img width=""600px"" src=""assets/demo.png"" /></center></br><p>Your goal is to <b>read the transcript</b> and <b>figure out which image</b> is being described! </p><p>You will <b>click the image</b> you think is being described, and then you will <b>find out if you were right</b>.<p><p>You will see <b>60 trials</b>. The image choices will stay the same, but the transcripts will come from different groups of people. Some of the transcripts may be much shorter or longer than others. Some of the descriptions may be hard to understand -- just take a guess if you are not sure.</p><p>You will get a bonus of <b>5 cents</b> for each image you get right! </p><p> <b>Note:</b> These descriptions came from real people and may contain inappropriate or offensive language. If you find a description inappropriate, please let us know via Prolific message or in the exit survey, so we can filter it out in the future.</p>",,,55065,,2,html-button-response,,,
842,the only one,14177,2_rotate_1,False,K,,,,8a3bQ2zrC7JzYqEJ6,0.0-3.0-0.0,1,[],L,,,"[{'role': 'speaker', 'text': 'This is similar to the picture of the person with bent knees facing right', 'playerId': 'QG9QyuRkmCKFr7dCn'}, {'role': 'listener', 'text': 'does it have the pointy triangle going to the right again', 'playerId': 'yH7KZ9hMajzHzMKGm'}, {'role': 'listener', 'text': 'and does the square head look more centered', 'playerId': 'yH7KZ9hMajzHzMKGm'}]",69244,,3,spr-buttons,selection,[],
842,the only one,,,,,,,,,0.0-3.0-1.0,,[],,,,,70166,,4,spr-buttons,feedback,[],
842,the only one,5846,2_rotate_1,True,J,,,,pR4tb8CtSgCLLcMQY,0.0-3.0-0.1,0,[],J,,,"[{'role': 'speaker', 'text': 'a a jagged square stone with a diamond on top', 'playerId': 'jMYJS2ANLmjazynqc'}]",76014,,5,spr-buttons,selection,[],
842,the only one,,,,,,,,,0.0-3.0-1.1,,[],,,,,76924,,6,spr-buttons,feedback,[],
842,the only one,39292,6_rotate_1,True,E,,,,nySo3NiJX7Kres7zm,0.0-3.0-0.2,7,[],E,,,"[{'role': 'speaker', 'text': 'looks like a person sat down against a wall with their knees up and some weird headband', 'playerId': 'iMBFSMZFcXNsgL6Hp'}, {'role': 'listener', 'text': 'bunny man', 'playerId': 'fPahkJv8CSQ2szZ5g'}, {'role': 'listener', 'text': 'Like a bunny', 'playerId': 'ugNcH6z9oWCzD3uHh'}, {'role': 'speaker', 'text': 'only one with stuff on top of the head', 'playerId': 'iMBFSMZFcXNsgL6Hp'}, {'role': 'listener', 'text': 'depressed rabbit', 'playerId': 'LqynML5vHZbk5fMhT'}, {'role': 'listener', 'text': 'mohican', 'playerId': 'fGSWZs7jQw2aMTGcd'}]",116223,,7,spr-buttons,selection,[],
842,the only one,,,,,,,,,0.0-3.0-1.2,,[],,,,,117135,,8,spr-buttons,feedback,[],
842,the only one,23732,2_rotate_1,True,L,,,,YLCrDGMMiennGjggY,0.0-3.0-0.3,1,[],L,,,"[{'role': 'speaker', 'text': 'the kneeling person but not with feet facing up', 'playerId': '9KnsNqjRjt4q7CtbN'}, {'role': 'speaker', 'text': 'the other one', 'playerId': '9KnsNqjRjt4q7CtbN'}]",140873,,9,spr-buttons,selection,[],
842,the only one,,,,,,,,,0.0-3.0-1.3,,[],,,,,141794,,10,spr-buttons,feedback,[],
842,the only one,7444,6_rotate_6,True,H,,,,nySo3NiJX7Kres7zm,0.0-3.0-0.4,8,[],H,,,"[{'role': 'speaker', 'text': 'Wrapped up baby', 'playerId': 'ugNcH6z9oWCzD3uHh'}]",149245,,11,spr-buttons,selection,[],
842,the only one,,,,,,,,,0.0-3.0-1.4,,[],,,,,150164,,12,spr-buttons,feedback,[],
842,the only one,30602,6_rotate_1,True,G,,,,sitQGDNZ9pYNy2ouh,0.0-3.0-0.5,2,[],G,,,"[{'role': 'speaker', 'text': 'head facing left', 'playerId': 'bu5i364mwtpLEGf93'}, {'role': 'listener', 'text': 'kicking or no', 'playerId': 'Er77zihSKbsBZmxFf'}, {'role': 'speaker', 'text': 'arm is raised on the right (triangle)', 'playerId': 'bu5i364mwtpLEGf93'}, {'role': 'speaker', 'text': 'triangle on right leg', 'playerId': 'bu5i364mwtpLEGf93'}, {'role': 'speaker', 'text': 'on the ground', 'playerId': 'bu5i364mwtpLEGf93'}, {'role': 'listener', 'text': 'do they look like they are kicking', 'playerId': 'djL8jKozrZEFaNyBX'}, {'role': 'listener', 'text': 'top right triangle and bottom right triangle', 'playerId': 'sjTxZrxwcxHzRfvGF'}, {'role': 'listener', 'text': ""they aren't looking up"", 'playerId': 'Er77zihSKbsBZmxFf'}, {'role': 'speaker', 'text': 'they r looking straight ahead', 'playerId': 'bu5i364mwtpLEGf93'}, {'role': 'listener', 'text': ""ok, I see, it's like they're doing a situp with their arms behind them"", 'playerId': 'sjTxZrxwcxHzRfvGF'}, {'role': 'listener', 'text': 'the legs are at right angles', 'playerId': 'urTF85GQNrLSFu4jK'}]",180769,,13,spr-buttons,selection,[],
842,the only one,,,,,,,,,0.0-3.0-1.5,,[],,,,,181679,,14,spr-buttons,feedback,[],
842,the only one,15302,6_rotate_1,True,C,,,,sitQGDNZ9pYNy2ouh,0.0-3.0-0.6,11,[],C,,,"[{'role': 'speaker', 'text': 'looks like someone is about to do a snow angel', 'playerId': 'bu5i364mwtpLEGf93'}, {'role': 'listener', 'text': 'are they on their knees', 'playerId': 'Er77zihSKbsBZmxFf'}, {'role': 'speaker', 'text': 'laying flat', 'playerId': 'bu5i364mwtpLEGf93'}, {'role': 'listener', 'text': 'does it look like they just got shot', 'playerId': 'sjTxZrxwcxHzRfvGF'}, {'role': 'speaker', 'text': 'at an angle', 'playerId': 'bu5i364mwtpLEGf93'}, {'role': 'listener', 'text': 'are their hands in the air', 'playerId': 'djL8jKozrZEFaNyBX'}, {'role': 'listener', 'text': 'are they sitting with their hands by their side', 'playerId': 'Er77zihSKbsBZmxFf'}, {'role': 'speaker', 'text': 'i suppose you could say they are in the air', 'playerId': 'bu5i364mwtpLEGf93'}, {'role': 'listener', 'text': 'is it the one that looks like one is kneeling', 'playerId': 'urTF85GQNrLSFu4jK'}, {'role': 'listener', 'text': 'slanted, arms in the air, head off to one side a bit', 'playerId': 'GhH9uKef73cS6EzgR'}, {'role': 'listener', 'text': 'head is top left kinda, right', 'playerId': 'Er77zihSKbsBZmxFf'}]",196987,,15,spr-buttons,selection,[],
842,the only one,,,,,,,,,0.0-3.0-1.6,,[],,,,,197906,,16,spr-buttons,feedback,[],
842,the only one,17104,6_rotate_1,True,J,,,,nySo3NiJX7Kres7zm,0.0-3.0-0.7,0,[],J,,,"[{'role': 'speaker', 'text': 'looks like a block', 'playerId': 'iMBFSMZFcXNsgL6Hp'}, {'role': 'speaker', 'text': 'head in middle', 'playerId': 'iMBFSMZFcXNsgL6Hp'}, {'role': 'speaker', 'text': ""can't see arms or legs properly"", 'playerId': 'iMBFSMZFcXNsgL6Hp'}, {'role': 'listener', 'text': 'back and legs are just a straight line', 'playerId': 'LqynML5vHZbk5fMhT'}, {'role': 'speaker', 'text': 'you can kind of see a pointed foot', 'playerId': 'iMBFSMZFcXNsgL6Hp'}, {'role': 'speaker', 'text': 'and pointy shoulder on right', 'playerId': 'iMBFSMZFcXNsgL6Hp'}]",215016,,17,spr-buttons,selection,[],
842,the only one,,,,,,,,,0.0-3.0-1.7,,[],,,,,215933,,18,spr-buttons,feedback,[],
842,the only one,13719,2_rotate_6,False,K,,,,2Csg2Snzrpkud2YRi,0.0-3.0-0.8,8,[],H,,,"[{'role': 'speaker', 'text': 'diamond on diamond', 'playerId': 'zyXatFB2smLy5NLCL'}]",229654,,19,spr-buttons,selection,[],
842,the only one,,,,,,,,,0.0-3.0-1.8,,[],,,,,230563,,20,spr-buttons,feedback,[],
842,the only one,33669,6_rotate_1,True,L,,,,kW6nqSFfGjERx6bEb,0.0-3.0-0.9,1,[],L,,,"[{'role': 'speaker', 'text': 'Squat', 'playerId': 'duzLnXCW2isWvpxwx'}, {'role': 'speaker', 'text': 'both arms forward', 'playerId': 'duzLnXCW2isWvpxwx'}, {'role': 'listener', 'text': 'Legs together', 'playerId': 'rRakLjR8isDM7GBo6'}, {'role': 'listener', 'text': 'legs bent', 'playerId': 'vTKsYLwRAxfgspsyk'}, {'role': 'speaker', 'text': 'straight diamond up', 'playerId': 'duzLnXCW2isWvpxwx'}]",264238,,21,spr-buttons,selection,[],
842,the only one,,,,,,,,,0.0-3.0-1.9,,[],,,,,265153,,22,spr-buttons,feedback,[],
842,the only one,42636,2_rotate_6,False,B,,,,of4gY8Bu37PbmkPee,0.0-3.0-0.10,5,[],F,,,"[{'role': 'speaker', 'text': 'triangle on left bottom', 'playerId': '7NrLvX7rfwB2y54ZF'}]",307798,,23,spr-buttons,selection,[],
842,the only one,,,,,,,,,0.0-3.0-1.10,,[],,,,,308704,,24,spr-buttons,feedback,[],
842,the only one,3243,6_rotate_6,True,I,,,,yPMhLu9xFgbC5dWLY,0.0-3.0-0.11,3,[],I,,,"[{'role': 'speaker', 'text': 'ice skater', 'playerId': 'awLY4XCudoFs3HNWo'}]",311952,,25,spr-buttons,selection,[],
842,the only one,,,,,,,,,0.0-3.0-1.11,,[],,,,,312869,,26,spr-buttons,feedback,[],
842,the only one,81294,6_rotate_1,True,B,,,,QiHQvZjkmw7v9k3P4,0.0-3.0-0.12,10,[],B,,,"[{'role': 'listener', 'text': 'facing right with hands', 'playerId': 'hJDoTe5Qoa4q2ejTt'}, {'role': 'listener', 'text': 'facing left', 'playerId': 'nETmq9AAvZMpuTarC'}, {'role': 'speaker', 'text': 'triangle body', 'playerId': 'Rju3Fq3cNiFHZ94te'}, {'role': 'listener', 'text': 'any legs', 'playerId': 'jEzRik8ujt4jnrqFG'}, {'role': 'listener', 'text': 'So standing then', 'playerId': 'hzsGC7CBSPkMEyDXq'}, {'role': 'speaker', 'text': 'not standing', 'playerId': 'Rju3Fq3cNiFHZ94te'}, {'role': 'speaker', 'text': 'like a triangle on its legs', 'playerId': 'Rju3Fq3cNiFHZ94te'}, {'role': 'listener', 'text': 'Small triangle on the bottom left', 'playerId': 'hzsGC7CBSPkMEyDXq'}, {'role': 'listener', 'text': 'facing right', 'playerId': 'mj43ozqpH4CgJjpyz'}, {'role': 'listener', 'text': 'kneeling', 'playerId': 'mj43ozqpH4CgJjpyz'}, {'role': 'listener', 'text': 'with feet flat to floor', 'playerId': 'mj43ozqpH4CgJjpyz'}]",394167,,27,spr-buttons,selection,[],
842,the only one,,,,,,,,,0.0-3.0-1.12,,[],,,,,395077,,28,spr-buttons,feedback,[],
842,the only one,19416,2_rotate_6,False,A,,,,FfK5QXXSw833vwHKX,0.0-3.0-0.13,4,[],D,,,"[{'role': 'speaker', 'text': 'zombie', 'playerId': 'psDWD9d3xQGdFFP7Q'}]",414502,,29,spr-buttons,selection,[],
842,the only one,,,,,,,,,0.0-3.0-1.13,,[],,,,,415422,,30,spr-buttons,feedback,[],
842,the only one,3722,6_rotate_6,True,D,,,,qzNuN6yp4HDWzko6T,0.0-3.0-0.14,4,[],D,,,"[{'role': 'speaker', 'text': 'Holding a box to the left', 'playerId': 'raCR7oL7mP22ToCrY'}]",419150,,31,spr-buttons,selection,[],
842,the only one,,,,,,,,,0.0-3.0-1.14,,[],,,,,420060,,32,spr-buttons,feedback,[],
842,the only one,13238,2_rotate_6,False,C,,,,Ja6HX8DgvFAspRAYm,0.0-3.0-0.15,8,[],H,,,"[{'role': 'speaker', 'text': 'no legs', 'playerId': 'Kzhdqc62M5vtN2q4e'}]",433304,,33,spr-buttons,selection,[],
842,the only one,,,,,,,,,0.0-3.0-1.15,,[],,,,,434214,,34,spr-buttons,feedback,[],
842,the only one,13096,2_rotate_1,True,G,,,,hu2zy5uGrN4qJ7qqe,0.0-3.0-0.16,2,[],G,,,"[{'role': 'speaker', 'text': ""this guys looks more intricate then the others, he has a cloak behind him on the left that looks like it's dragging on the ground"", 'playerId': 'xwCpnpj4eoCiFYeCE'}, {'role': 'speaker', 'text': 'his feet and arms are on the right side', 'playerId': 'xwCpnpj4eoCiFYeCE'}, {'role': 'speaker', 'text': 'and his head is leaning back towards the left side', 'playerId': 'xwCpnpj4eoCiFYeCE'}]",447316,,35,spr-buttons,selection,[],
842,the only one,,,,,,,,,0.0-3.0-1.16,,[],,,,,448232,,36,spr-buttons,feedback,[],
842,the only one,8115,2_rotate_6,True,F,,,,52Z92z3wj7TxhCe3X,0.0-3.0-0.17,5,[],F,,,"[{'role': 'speaker', 'text': 'knees up', 'playerId': 'jDNNo5YT7r2NRqawS'}]",456353,,37,spr-buttons,selection,[],
842,the only one,,,,,,,,,0.0-3.0-1.17,,[],,,,,457265,,38,spr-buttons,feedback,[],
842,the only one,32026,6_rotate_6,True,G,,,,4mKoevW3ykd2FDr7L,0.0-3.0-0.18,2,[],G,,,"[{'role': 'speaker', 'text': 'two triangles on right', 'playerId': 'vwpmmXPfWPvNcd9RA'}, {'role': 'speaker', 'text': 'trapezoid bottom left', 'playerId': 'vwpmmXPfWPvNcd9RA'}, {'role': 'speaker', 'text': 'looks like a horse mayb', 'playerId': 'vwpmmXPfWPvNcd9RA'}, {'role': 'speaker', 'text': 'small triangle below head on the left', 'playerId': 'vwpmmXPfWPvNcd9RA'}]",489294,,39,spr-buttons,selection,[],
842,the only one,,,,,,,,,0.0-3.0-1.18,,[],,,,,490213,,40,spr-buttons,feedback,[],
842,the only one,11851,2_rotate_1,True,H,,,,CNET4E5tvYW37ZevE,0.0-3.0-0.19,8,[],H,,,"[{'role': 'speaker', 'text': 'diamond shaped head on top of an octagonal shape', 'playerId': 'oNe96ojnutpRrwiFb'}, {'role': 'speaker', 'text': 'looks like a big blob kind of', 'playerId': 'oNe96ojnutpRrwiFb'}, {'role': 'listener', 'text': 'looks like a worm', 'playerId': 'dxXnuyKwFTw4bdKd5'}, {'role': 'listener', 'text': 'the potatoey looking one', 'playerId': 'dxXnuyKwFTw4bdKd5'}]",502071,,41,spr-buttons,selection,[],
842,the only one,,,,,,,,,0.0-3.0-1.19,,[],,,,,502982,,42,spr-buttons,feedback,[],
842,the only one,18600,2_rotate_1,False,D,,,,YyAyuHf7S76wsbCA6,0.0-3.0-0.20,6,[],K,,,"[{'role': 'speaker', 'text': 'select the figure kneeling and like palms out', 'playerId': 'fAMhn4Ein8YivGti7'}, {'role': 'speaker', 'text': 'like begging', 'playerId': 'fAMhn4Ein8YivGti7'}, {'role': 'listener', 'text': 'Facing to the right', 'playerId': '7R6jKabotwJFLSyNW'}]",521590,,43,spr-buttons,selection,[],
842,the only one,,,,,,,,,0.0-3.0-1.20,,[],,,,,522500,,44,spr-buttons,feedback,[],
842,the only one,3404,6_rotate_6,True,C,,,,k4otZKu35xehtF93F,0.0-3.0-0.21,11,[],C,,,"[{'role': 'speaker', 'text': 'classic ghost, both arms up, no legs, slanting back to the left', 'playerId': 'ybQ6avjhBa46uuw8Z'}]",525911,,45,spr-buttons,selection,[],
842,the only one,,,,,,,,,0.0-3.0-1.21,,[],,,,,526821,,46,spr-buttons,feedback,[],
842,the only one,5193,6_rotate_6,True,F,,,,cLaK88862bv7MHMuQ,0.0-3.0-0.22,5,[],F,,,"[{'role': 'speaker', 'text': 'sad man', 'playerId': 'gd4Mbi8awyKfZgvka'}, {'role': 'speaker', 'text': 'knees pointing upwards', 'playerId': 'gd4Mbi8awyKfZgvka'}]",532020,,47,spr-buttons,selection,[],
842,the only one,,,,,,,,,0.0-3.0-1.22,,[],,,,,532933,,48,spr-buttons,feedback,[],
842,the only one,7336,2_rotate_6,True,A,,,,79swBZFsJnrQuHvhd,0.0-3.0-0.23,9,[],A,,,"[{'role': 'speaker', 'text': 'mans head sliding off shoulders, on one leg', 'playerId': 'b6WTJQoLvhx9dhQWk'}]",540277,,49,spr-buttons,selection,[],
842,the only one,,,,,,,,,0.0-3.0-1.23,,[],,,,,541197,,50,spr-buttons,feedback,[],
842,the only one,29092,2_rotate_6,True,F,,,,YyAyuHf7S76wsbCA6,0.0-3.0-0.24,5,[],F,,,"[{'role': 'speaker', 'text': 'Person sitting to the left Long left sticking out to left Head bowed down to the left', 'playerId': '7R6jKabotwJFLSyNW'}]",570294,,51,spr-buttons,selection,[],
842,the only one,,,,,,,,,0.0-3.0-1.24,,[],,,,,571212,,52,spr-buttons,feedback,[],
842,the only one,17987,6_rotate_1,False,B,,,,sitQGDNZ9pYNy2ouh,0.0-3.0-0.25,6,[],K,,,"[{'role': 'speaker', 'text': 'kneeling down with arms out facing right', 'playerId': 'bu5i364mwtpLEGf93'}, {'role': 'listener', 'text': 'are they looking up or straight', 'playerId': 'Er77zihSKbsBZmxFf'}, {'role': 'listener', 'text': 'does it look like someone whos about to pray', 'playerId': 'djL8jKozrZEFaNyBX'}, {'role': 'speaker', 'text': 'they are looking down', 'playerId': 'bu5i364mwtpLEGf93'}, {'role': 'listener', 'text': 'the legs are inclined at an angle right', 'playerId': 'urTF85GQNrLSFu4jK'}, {'role': 'speaker', 'text': 'legs are flat', 'playerId': 'bu5i364mwtpLEGf93'}, {'role': 'speaker', 'text': ""like he's kneeling"", 'playerId': 'bu5i364mwtpLEGf93'}]",589207,,53,spr-buttons,selection,[],
842,the only one,,,,,,,,,0.0-3.0-1.25,,[],,,,,590128,,54,spr-buttons,feedback,[],
842,the only one,44796,6_rotate_1,True,D,,,,57QkWqXASdPMDFRmA,0.0-3.0-0.26,4,[],D,,,"[{'role': 'speaker', 'text': 'standing upright', 'playerId': 'foLY9seHz9WKw4HPk'}, {'role': 'speaker', 'text': 'looks like it holding hands open', 'playerId': 'foLY9seHz9WKw4HPk'}, {'role': 'listener', 'text': 'What position are the legs', 'playerId': '4G9hab5MLzr3hzwbK'}, {'role': 'listener', 'text': 'one leg', 'playerId': 'G2cRaG8fekyPR6Msn'}, {'role': 'listener', 'text': 'praying to the left', 'playerId': 'eXYo8Pa5AjP8RZ5ED'}, {'role': 'speaker', 'text': 'feet facing left', 'playerId': 'foLY9seHz9WKw4HPk'}, {'role': 'listener', 'text': 'Upright but to the left', 'playerId': 'PhukZyyqKFDxhsjYv'}, {'role': 'listener', 'text': 'are both legs down or one up in the air', 'playerId': 'kSyYrH7xx66AeKjLF'}, {'role': 'listener', 'text': 'which way do the arms and head face', 'playerId': 'kSyYrH7xx66AeKjLF'}, {'role': 'speaker', 'text': ""looks like he's getting communion"", 'playerId': 'foLY9seHz9WKw4HPk'}, {'role': 'speaker', 'text': 'left', 'playerId': 'foLY9seHz9WKw4HPk'}, {'role': 'speaker', 'text': 'might look like a waiter', 'playerId': 'foLY9seHz9WKw4HPk'}]",634929,,55,spr-buttons,selection,[],
842,the only one,,,,,,,,,0.0-3.0-1.26,,[],,,,,635838,,56,spr-buttons,feedback,[],
842,the only one,2813,6_rotate_6,True,E,,,,cLaK88862bv7MHMuQ,0.0-3.0-0.27,7,[],E,,,"[{'role': 'speaker', 'text': 'bunny ears windmill', 'playerId': 'gd4Mbi8awyKfZgvka'}]",638655,,57,spr-buttons,selection,[],
842,the only one,,,,,,,,,0.0-3.0-1.27,,[],,,,,639576,,58,spr-buttons,feedback,[],
842,the only one,14701,6_rotate_1,True,J,,,,ppvQxmgBzQniJp9K3,0.0-3.0-0.28,0,[],J,,,"[{'role': 'speaker', 'text': 'completely straight back on the left hand side', 'playerId': 'GK7qetdhhFYnmv9aj'}, {'role': 'listener', 'text': 'are the arms pointing left', 'playerId': 'ZLky5mmoBFnQr6MPL'}, {'role': 'listener', 'text': 'one arm to the right', 'playerId': '67puAkQog5NuwZ6jP'}, {'role': 'listener', 'text': 'Standing up', 'playerId': 'S8HakjpPRMSJBgrys'}, {'role': 'listener', 'text': 'ok and the bottom line is a right angle, or the bottom half of an octagon', 'playerId': 'CSEXDdvymSd6kiAKx'}, {'role': 'listener', 'text': 'does it have a shoulder of sorts pointing right', 'playerId': '3DWisPnMkezQZDrxk'}, {'role': 'speaker', 'text': 'bottom and top corners on left hand side form right angles', 'playerId': 'GK7qetdhhFYnmv9aj'}, {'role': 'listener', 'text': 'does it have stuff on its head', 'playerId': 'CSEXDdvymSd6kiAKx'}, {'role': 'speaker', 'text': 'right arm hand sticks out further than right foot no left arm or foot is visible', 'playerId': 'GK7qetdhhFYnmv9aj'}]",654278,,59,spr-buttons,selection,[],
842,the only one,,,,,,,,,0.0-3.0-1.28,,[],,,,,655196,,60,spr-buttons,feedback,[],
842,the only one,7629,6_rotate_6,True,K,,,,YcwXqvuyhhCeZ3GSZ,0.0-3.0-0.29,6,[],K,,,"[{'role': 'speaker', 'text': 'offering, kneeling, triangle on back', 'playerId': 't72k5QhnBy6LkmMFf'}]",662828,,61,spr-buttons,selection,[],
842,the only one,,,,,,,,,0.0-3.0-1.29,,[],,,,,663748,,62,spr-buttons,feedback,[],
842,the only one,6791,6_rotate_6,True,L,,,,cLaK88862bv7MHMuQ,0.0-3.0-0.30,1,[],L,,,"[{'role': 'speaker', 'text': 'zig zag legs', 'playerId': 'gd4Mbi8awyKfZgvka'}]",670548,,63,spr-buttons,selection,[],
842,the only one,,,,,,,,,0.0-3.0-1.30,,[],,,,,671459,,64,spr-buttons,feedback,[],
842,the only one,3772,2_rotate_1,True,I,,,,8a3bQ2zrC7JzYqEJ6,0.0-3.0-0.31,3,[],I,,,"[{'role': 'speaker', 'text': 'This picture looks like a skater about to do a spinning pirouette on one leg', 'playerId': 'QG9QyuRkmCKFr7dCn'}, {'role': 'listener', 'text': ""there's a triangle on the right side of the leg right"", 'playerId': 'yH7KZ9hMajzHzMKGm'}, {'role': 'listener', 'text': ""it's just an upright triangle"", 'playerId': 'yH7KZ9hMajzHzMKGm'}]",675236,,65,spr-buttons,selection,[],
842,the only one,,,,,,,,,0.0-3.0-1.31,,[],,,,,676155,,66,spr-buttons,feedback,[],
842,the only one,5337,2_rotate_6,True,F,,,,2928FF7GcrkeFiDkh,0.0-3.0-0.32,5,[],F,,,"[{'role': 'speaker', 'text': 'moper', 'playerId': '5L7PZWTLhnYMGQE8b'}]",681498,,67,spr-buttons,selection,[],
842,the only one,,,,,,,,,0.0-3.0-1.32,,[],,,,,682408,,68,spr-buttons,feedback,[],
842,the only one,11100,2_rotate_6,True,G,,,,YyAyuHf7S76wsbCA6,0.0-3.0-0.33,2,[],G,,,"[{'role': 'speaker', 'text': ""Figure facing right Has a long 'train' hanging on floor on left side Arms outstretched"", 'playerId': '7R6jKabotwJFLSyNW'}, {'role': 'speaker', 'text': 'One had is up high to right, other is down low on right', 'playerId': '7R6jKabotwJFLSyNW'}]",693514,,69,spr-buttons,selection,[],
842,the only one,,,,,,,,,0.0-3.0-1.33,,[],,,,,694429,,70,spr-buttons,feedback,[],
842,the only one,10540,6_rotate_1,True,L,,,,6bkpQbsv6wvHWczvB,0.0-3.0-0.34,1,[],L,,,"[{'role': 'speaker', 'text': 'last one was hard', 'playerId': 'pNzsWQrabqXgTRTpu'}, {'role': 'speaker', 'text': 'it facing the right of the screen', 'playerId': 'pNzsWQrabqXgTRTpu'}, {'role': 'speaker', 'text': ""squatting looks like it's holding a bowl"", 'playerId': 'pNzsWQrabqXgTRTpu'}, {'role': 'speaker', 'text': 'with bent legs', 'playerId': 'pNzsWQrabqXgTRTpu'}]",704971,,71,spr-buttons,selection,[],
842,the only one,,,,,,,,,0.0-3.0-1.34,,[],,,,,705892,,72,spr-buttons,feedback,[],
842,the only one,39209,2_rotate_1,False,B,,,,YLCrDGMMiennGjggY,0.0-3.0-0.35,2,[],G,,,"[{'role': 'speaker', 'text': 'i think it kind of looks like a mouse', 'playerId': '9KnsNqjRjt4q7CtbN'}, {'role': 'speaker', 'text': 'its small and centered', 'playerId': '9KnsNqjRjt4q7CtbN'}, {'role': 'speaker', 'text': 'also has ears', 'playerId': '9KnsNqjRjt4q7CtbN'}, {'role': 'speaker', 'text': 'and quite a long bottom but not as long as that rabbit had', 'playerId': '9KnsNqjRjt4q7CtbN'}, {'role': 'listener', 'text': 'Ears are one triangle and one diamond or is it two weird ears and a diamond', 'playerId': 'sRndTvhfyBR67QCdv'}, {'role': 'speaker', 'text': 'one triangle and one diamond', 'playerId': '9KnsNqjRjt4q7CtbN'}]",745107,,73,spr-buttons,selection,[],
842,the only one,,,,,,,,,0.0-3.0-1.35,,[],,,,,746019,,74,spr-buttons,feedback,[],
842,the only one,12252,2_rotate_6,False,K,,,,GpF4Ge9YCd7ih3DFr,0.0-3.0-0.36,8,[],H,,,"[{'role': 'speaker', 'text': 'seal!', 'playerId': '9DEoh9BWkZFYxhECs'}]",758276,,75,spr-buttons,selection,[],
842,the only one,,,,,,,,,0.0-3.0-1.36,,[],,,,,759201,,76,spr-buttons,feedback,[],
842,the only one,8168,2_rotate_6,True,F,,,,79swBZFsJnrQuHvhd,0.0-3.0-0.37,5,[],F,,,"[{'role': 'speaker', 'text': 'man sitting on floor with knees bent, facing left', 'playerId': 'b6WTJQoLvhx9dhQWk'}]",767376,,77,spr-buttons,selection,[],
842,the only one,,,,,,,,,0.0-3.0-1.37,,[],,,,,768293,,78,spr-buttons,feedback,[],
842,the only one,39416,6_rotate_1,True,E,,,,ppvQxmgBzQniJp9K3,0.0-3.0-0.38,7,[],E,,,"[{'role': 'speaker', 'text': ""doesn't really resemble a person at all"", 'playerId': 'GK7qetdhhFYnmv9aj'}, {'role': 'listener', 'text': 'bottom left of it is a right angle triangle', 'playerId': 'CSEXDdvymSd6kiAKx'}, {'role': 'speaker', 'text': 'kind of like a an area graph with a palm tree or windmill on top', 'playerId': 'GK7qetdhhFYnmv9aj'}, {'role': 'listener', 'text': 'with right angles at shoulder and left foot', 'playerId': '67puAkQog5NuwZ6jP'}, {'role': 'listener', 'text': 'Bunny Ears', 'playerId': 'ZLky5mmoBFnQr6MPL'}, {'role': 'listener', 'text': 'So like someone sitting with their back to a wall,body facing to the right', 'playerId': 'S8HakjpPRMSJBgrys'}, {'role': 'speaker', 'text': 'two triangles (bunny ears) sticking out of head', 'playerId': 'GK7qetdhhFYnmv9aj'}, {'role': 'listener', 'text': 'sitting or standing', 'playerId': '67puAkQog5NuwZ6jP'}, {'role': 'listener', 'text': '<>', 'playerId': 'CSEXDdvymSd6kiAKx'}, {'role': 'speaker', 'text': 'of it was a person they would be sitting facing right', 'playerId': 'GK7qetdhhFYnmv9aj'}, {'role': 'listener', 'text': ""let's call this one bunny ears"", 'playerId': '67puAkQog5NuwZ6jP'}, {'role': 'speaker', 'text': ""i'm guessing what would normally be arms would be sticking out of head"", 'playerId': 'GK7qetdhhFYnmv9aj'}, {'role': 'listener', 'text': 'left side is basically a square, with a little square head on tp', 'playerId': 'CSEXDdvymSd6kiAKx'}]",807711,,79,spr-buttons,selection,[],
842,the only one,,,,,,,,,0.0-3.0-1.38,,[],,,,,808629,,80,spr-buttons,feedback,[],
842,the only one,12729,2_rotate_6,False,I,,,,FfK5QXXSw833vwHKX,0.0-3.0-0.39,2,[],G,,,"[{'role': 'speaker', 'text': 'high kick', 'playerId': 'psDWD9d3xQGdFFP7Q'}]",821364,,81,spr-buttons,selection,[],
842,the only one,,,,,,,,,0.0-3.0-1.39,,[],,,,,822276,,82,spr-buttons,feedback,[],
842,the only one,1988,6_rotate_6,True,E,,,,57QkWqXASdPMDFRmA,0.0-3.0-0.40,7,[],E,,,"[{'role': 'speaker', 'text': 'bunny ears', 'playerId': 'G2cRaG8fekyPR6Msn'}, {'role': 'speaker', 'text': 'facing right sitting', 'playerId': 'G2cRaG8fekyPR6Msn'}]",824271,,83,spr-buttons,selection,[],
842,the only one,,,,,,,,,0.0-3.0-1.40,,[],,,,,825188,,84,spr-buttons,feedback,[],
842,the only one,23540,2_rotate_1,False,B,,,,52Z92z3wj7TxhCe3X,0.0-3.0-0.41,2,[],G,,,"[{'role': 'speaker', 'text': 'Quite abstract - facing left with a spikey looking chest Head is reclining onto what looks like a triangular pillow Feet are out with the person sat down, back side of the person sticking out more', 'playerId': 'YjxxewuyohjoySxSn'}]",848729,,85,spr-buttons,selection,[],
842,the only one,,,,,,,,,0.0-3.0-1.41,,[],,,,,849647,,86,spr-buttons,feedback,[],
842,the only one,3847,6_rotate_6,True,I,,,,7i3mnwWykEA95fvyk,0.0-3.0-0.42,3,[],I,,,"[{'role': 'speaker', 'text': 'ice skater', 'playerId': '6bYzncKaESZG3XQY3'}]",853499,,87,spr-buttons,selection,[],
842,the only one,,,,,,,,,0.0-3.0-1.42,,[],,,,,854417,,88,spr-buttons,feedback,[],
842,the only one,4936,2_rotate_1,True,C,,,,2928FF7GcrkeFiDkh,0.0-3.0-0.43,11,[],C,,,"[{'role': 'speaker', 'text': 'Leaning way to the left Arms up like a Y', 'playerId': 'okkXLvTuqNbsZkBZ2'}]",859358,,89,spr-buttons,selection,[],
842,the only one,,,,,,,,,0.0-3.0-1.43,,[],,,,,860273,,90,spr-buttons,feedback,[],
842,the only one,6048,2_rotate_6,True,I,,,,gjooqsuf2CPN5AWxi,0.0-3.0-0.44,3,[],I,,,"[{'role': 'speaker', 'text': 'facing left on one leg, other leg to the right', 'playerId': 'SzYY9C53Ne7cMaPHC'}]",866327,,91,spr-buttons,selection,[],
842,the only one,,,,,,,,,0.0-3.0-1.44,,[],,,,,867241,,92,spr-buttons,feedback,[],
842,the only one,15831,2_rotate_1,False,D,,,,dBAksjEwZCAZRyqJk,0.0-3.0-0.45,1,[],L,,,"[{'role': 'speaker', 'text': 'looks like a person with their hands out asking or like begging u could say', 'playerId': 'g2sowCsDmoh28sbgq'}, {'role': 'speaker', 'text': 'they are stood up', 'playerId': 'g2sowCsDmoh28sbgq'}]",883077,,93,spr-buttons,selection,[],
842,the only one,,,,,,,,,0.0-3.0-1.45,,[],,,,,883988,,94,spr-buttons,feedback,[],
842,the only one,2038,6_rotate_1,True,I,,,,57QkWqXASdPMDFRmA,0.0-3.0-0.46,3,[],I,,,"[{'role': 'listener', 'text': 'Ice stater pointing left', 'playerId': 'G2cRaG8fekyPR6Msn'}, {'role': 'listener', 'text': 'One one foot', 'playerId': '4G9hab5MLzr3hzwbK'}, {'role': 'listener', 'text': 'On one foot', 'playerId': '4G9hab5MLzr3hzwbK'}, {'role': 'speaker', 'text': 'looks like an ice skater with leg raised', 'playerId': 'foLY9seHz9WKw4HPk'}, {'role': 'listener', 'text': 'two triangles facing left', 'playerId': 'kSyYrH7xx66AeKjLF'}, {'role': 'listener', 'text': '2 diamonds pointing left', 'playerId': 'PhukZyyqKFDxhsjYv'}, {'role': 'speaker', 'text': 'yes body has two triangle facing left', 'playerId': 'foLY9seHz9WKw4HPk'}]",886031,,95,spr-buttons,selection,[],
842,the only one,,,,,,,,,0.0-3.0-1.46,,[],,,,,886947,,96,spr-buttons,feedback,[],
842,the only one,18763,6_rotate_6,True,L,,,,7i3mnwWykEA95fvyk,0.0-3.0-0.47,1,[],L,,,"[{'role': 'speaker', 'text': ""it's the pac man but not the pack man"", 'playerId': '6bYzncKaESZG3XQY3'}, {'role': 'speaker', 'text': ""it's the zig zag one"", 'playerId': '6bYzncKaESZG3XQY3'}]",905711,,97,spr-buttons,selection,[],
842,the only one,,,,,,,,,0.0-3.0-1.47,,[],,,,,906628,,98,spr-buttons,feedback,[],
842,the only one,16411,2_rotate_1,True,F,,,,8a3bQ2zrC7JzYqEJ6,0.0-3.0-0.48,5,[],F,,,"[{'role': 'speaker', 'text': 'This looks like a picture of a person sitting down, with their knees up and their toes facing left', 'playerId': 'QG9QyuRkmCKFr7dCn'}, {'role': 'listener', 'text': 'does the square or head look slouched over', 'playerId': 'yH7KZ9hMajzHzMKGm'}]",923037,,99,spr-buttons,selection,[],
842,the only one,,,,,,,,,0.0-3.0-1.48,,[],,,,,923945,,100,spr-buttons,feedback,[],
842,the only one,6487,6_rotate_1,True,E,,,,yPMhLu9xFgbC5dWLY,0.0-3.0-0.49,7,[],E,,,"[{'role': 'speaker', 'text': ""ok, looking at it like they're people, this is the one with two things sticking out of its head"", 'playerId': '3HQ2FaXAPXevHQfsd'}, {'role': 'speaker', 'text': 'like someone sitting with their back against a wall looking down', 'playerId': '3HQ2FaXAPXevHQfsd'}, {'role': 'speaker', 'text': 'maybe wearing a bow or something', 'playerId': '3HQ2FaXAPXevHQfsd'}]",930439,,101,spr-buttons,selection,[],
842,the only one,,,,,,,,,0.0-3.0-1.49,,[],,,,,931354,,102,spr-buttons,feedback,[],
842,the only one,11470,2_rotate_6,True,L,,,,YyAyuHf7S76wsbCA6,0.0-3.0-0.50,1,[],L,,,"[{'role': 'speaker', 'text': 'Figure half-kneeling to the right Has a hunched back on the left side Hand outstretched to right Head looking up to right', 'playerId': '7R6jKabotwJFLSyNW'}]",942828,,103,spr-buttons,selection,[],
842,the only one,,,,,,,,,0.0-3.0-1.50,,[],,,,,943737,,104,spr-buttons,feedback,[],
842,the only one,24226,6_rotate_1,True,B,,,,aFykNpfLr9BqKdsFL,0.0-3.0-0.51,10,[],B,,,"[{'role': 'speaker', 'text': 'the head has one triangle coming out of it', 'playerId': 'qioaDCfDaa28TFEA8'}, {'role': 'listener', 'text': 'Does it look like a mouse', 'playerId': 'PGAtCk8Ks2aJygddG'}, {'role': 'listener', 'text': 'Facing left', 'playerId': 'PGAtCk8Ks2aJygddG'}, {'role': 'listener', 'text': 'with triangle at the bottom like feet', 'playerId': 'PGAtCk8Ks2aJygddG'}]",967970,,105,spr-buttons,selection,[],
842,the only one,,,,,,,,,0.0-3.0-1.51,,[],,,,,968885,,106,spr-buttons,feedback,[],
842,the only one,7947,2_rotate_1,True,F,,,,3A9hhryuHHeDQhoGy,0.0-3.0-0.52,5,[],F,,,"[{'role': 'speaker', 'text': 'player sitting down facing left', 'playerId': 'CWk6Fmq7GL3ktEozG'}]",976838,,107,spr-buttons,selection,[],
842,the only one,,,,,,,,,0.0-3.0-1.52,,[],,,,,977756,,108,spr-buttons,feedback,[],
842,the only one,4668,2_rotate_1,True,L,,,,8a3bQ2zrC7JzYqEJ6,0.0-3.0-0.53,1,[],L,,,"[{'role': 'speaker', 'text': 'This looks like a person who is standing with their knees bent', 'playerId': 'QG9QyuRkmCKFr7dCn'}, {'role': 'speaker', 'text': 'Facing right', 'playerId': 'QG9QyuRkmCKFr7dCn'}, {'role': 'listener', 'text': 'is there a triangle coming out of the body facing right', 'playerId': 'yH7KZ9hMajzHzMKGm'}]",982435,,109,spr-buttons,selection,[],
842,the only one,,,,,,,,,0.0-3.0-1.53,,[],,,,,983346,,110,spr-buttons,feedback,[],
842,the only one,9599,2_rotate_6,True,G,,,,of4gY8Bu37PbmkPee,0.0-3.0-0.54,2,[],G,,,"[{'role': 'speaker', 'text': 'tiny triangle bottom right', 'playerId': '7NrLvX7rfwB2y54ZF'}]",992952,,111,spr-buttons,selection,[],
842,the only one,,,,,,,,,0.0-3.0-1.54,,[],,,,,993865,,112,spr-buttons,feedback,[],
842,the only one,8988,6_rotate_6,True,L,,,,yPMhLu9xFgbC5dWLY,0.0-3.0-0.55,1,[],L,,,"[{'role': 'speaker', 'text': 'knees bent, facing right looks like bowler', 'playerId': 'awLY4XCudoFs3HNWo'}, {'role': 'speaker', 'text': 'still standing', 'playerId': 'awLY4XCudoFs3HNWo'}, {'role': 'speaker', 'text': 'standing', 'playerId': 'awLY4XCudoFs3HNWo'}]",1002857,,113,spr-buttons,selection,[],
842,the only one,,,,,,,,,0.0-3.0-1.55,,[],,,,,1003772,,114,spr-buttons,feedback,[],
842,the only one,10313,6_rotate_6,True,D,,,,57QkWqXASdPMDFRmA,0.0-3.0-0.56,4,[],D,,,"[{'role': 'speaker', 'text': 'gown', 'playerId': 'G2cRaG8fekyPR6Msn'}, {'role': 'speaker', 'text': 'facing left standing holding tray', 'playerId': 'G2cRaG8fekyPR6Msn'}, {'role': 'speaker', 'text': 'upright', 'playerId': 'G2cRaG8fekyPR6Msn'}]",1014090,,115,spr-buttons,selection,[],
842,the only one,,,,,,,,,0.0-3.0-1.56,,[],,,,,1015006,,116,spr-buttons,feedback,[],
842,the only one,16088,6_rotate_6,True,H,,,,cLaK88862bv7MHMuQ,0.0-3.0-0.57,8,[],H,,,"[{'role': 'speaker', 'text': 'no arms or legs tail to right', 'playerId': 'gd4Mbi8awyKfZgvka'}]",1031099,,117,spr-buttons,selection,[],
842,the only one,,,,,,,,,0.0-3.0-1.57,,[],,,,,1032017,,118,spr-buttons,feedback,[],
842,the only one,12692,6_rotate_1,True,J,,,,kW6nqSFfGjERx6bEb,0.0-3.0-0.58,0,[],J,,,"[{'role': 'speaker', 'text': 'the head looks like a straight diamonds Right arms sideway Right leg bended Left body straight', 'playerId': 'duzLnXCW2isWvpxwx'}]",1044715,,119,spr-buttons,selection,[],
842,the only one,,,,,,,,,0.0-3.0-1.58,,[],,,,,1045634,,120,spr-buttons,feedback,[],
842,the only one,2047,2_rotate_1,True,D,,,,pR4tb8CtSgCLLcMQY,0.0-3.0-0.59,4,[],D,,,"[{'role': 'speaker', 'text': 'a server in a restaurant', 'playerId': 'jMYJS2ANLmjazynqc'}]",1047687,,121,spr-buttons,selection,[],
842,the only one,,,,,,,,,0.0-3.0-1.59,,[],,,,,1048599,,122,spr-buttons,feedback,[],
842,the only one,,,,,,,,,0.0-4.0,"{'other': 'This was quite fun!', 'errors': 'No.', 'length': 'The task length was about right. I suspect people will want longer and shorter versions to suit themselves. ', 'interface': 'No.', 'understand': 'The instructions were clear'}",98391,,,,,1146999,,123,survey-text,,,
842,the only one,,,,,,,,,0.0-5.0,0,11253,,"<h2>Many thanks for participating!</h2><p>We are generally interested in how people form conventions, such as shared 'nicknames' for images. Here, we are studying when these shared 'nicknames' are understandable to people who were not part of the group that created the nickname.</p><h1>Press continue to be redirected to Prolific. </h1>",,,1158254,,124,html-button-response,,,
836,the only one,,,,,[],[],[],,0.0-0.0,,,,,True,,164,False,0,preload,,,
836,the only one,,,,,,,,,0.0-1.0,0,7460,," <center><img width=""300px"" src=""assets/stanford.png"" /></center><div id=""legal""></br>By answering the following questions, you are participating in a study being performed by cognitive scientists in the Stanford Department of Psychology. If you have questions about this research, please contact us at  <a href=""mailto://languagecoglab@gmail.com.""> languagecoglab@gmail.com</a>.You must be at least 18 years old to participate. Your participation in this research is voluntary. You may decline to answer any or all of the following questions. You may decline further participation, at any time, without adverse consequences. Your anonymity is assured; the researchers who have requested your participation will not receive any personal information about you. </div></br>",,,7625,,1,html-button-response,,,
836,the only one,,,,,,,,,0.0-2.0,0,52023,,"<h3>Please read these instructions carefully!</h3> </br><div id=""intro""> <p>In this task, you will see a <b>transcript of a conversation</b> some previous participants had where a <b>speaker identified one of the images to some listeners</b>.</p></br><center><img width=""600px"" src=""assets/demo.png"" /></center></br><p>Your goal is to <b>read the transcript</b> and <b>figure out which image</b> is being described! </p><p>You will <b>click the image</b> you think is being described, and then you will <b>find out if you were right</b>.<p><p>You will see <b>60 trials</b>. The image choices will stay the same, but the transcripts will come from different groups of people. Some of the transcripts may be much shorter or longer than others. Some of the descriptions may be hard to understand -- just take a guess if you are not sure.</p><p>You will get a bonus of <b>5 cents</b> for each image you get right! </p><p> <b>Note:</b> These descriptions came from real people and may contain inappropriate or offensive language. If you find a description inappropriate, please let us know via Prolific message or in the exit survey, so we can filter it out in the future.</p>",,,59651,,2,html-button-response,,,
836,the only one,9005,2_rotate_1,True,L,,,,FfK5QXXSw833vwHKX,0.0-3.0-0.0,11,[],L,,,"[{'role': 'speaker', 'text': 'this one looks like someone is stood up but with bent legs', 'playerId': '6iMbQKiFyJ2YwPaeo'}, {'role': 'speaker', 'text': 'facing right', 'playerId': '6iMbQKiFyJ2YwPaeo'}]",68659,,3,spr-buttons,selection,[],
836,the only one,,,,,,,,,0.0-3.0-1.0,,[],,,,,69568,,4,spr-buttons,feedback,[],
836,the only one,12059,6_rotate_1,False,F,,,,YcwXqvuyhhCeZ3GSZ,0.0-3.0-0.1,8,[],G,,,"[{'role': 'speaker', 'text': 'it looks like a man sitting down', 'playerId': 'TpNRiZ9WuhnFh5qYA'}, {'role': 'listener', 'text': 'does it look like he has his arms under him', 'playerId': 'GLrfDkSxXGqXov7EE'}]",81629,,5,spr-buttons,selection,[],
836,the only one,,,,,,,,,0.0-3.0-1.1,,[],,,,,82550,,6,spr-buttons,feedback,[],
836,the only one,20786,2_rotate_1,True,G,,,,gjooqsuf2CPN5AWxi,0.0-3.0-0.2,8,[],G,,,"[{'role': 'speaker', 'text': 'triangle at bottom right, connecting by one point, diamond head pointing towards the left', 'playerId': 'tuNTPZ2dpnLz8EKgu'}]",103342,,7,spr-buttons,selection,[],
836,the only one,,,,,,,,,0.0-3.0-1.2,,[],,,,,104249,,8,spr-buttons,feedback,[],
836,the only one,9153,6_rotate_6,True,K,,,,57QkWqXASdPMDFRmA,0.0-3.0-0.3,2,[],K,,,"[{'role': 'speaker', 'text': 'facing right', 'playerId': 'G2cRaG8fekyPR6Msn'}, {'role': 'speaker', 'text': 'full kneeling holding tray', 'playerId': 'G2cRaG8fekyPR6Msn'}, {'role': 'speaker', 'text': 'upright head', 'playerId': 'G2cRaG8fekyPR6Msn'}]",113407,,9,spr-buttons,selection,[],
836,the only one,,,,,,,,,0.0-3.0-1.3,,[],,,,,114314,,10,spr-buttons,feedback,[],
836,the only one,4072,2_rotate_1,True,E,,,,GpF4Ge9YCd7ih3DFr,0.0-3.0-0.4,4,[],E,,,"[{'role': 'speaker', 'text': 'bunny ears', 'playerId': 'cjtnTXrerxbK7pi39'}, {'role': 'speaker', 'text': 'two triangle on top of diamond head', 'playerId': 'cjtnTXrerxbK7pi39'}, {'role': 'speaker', 'text': '""feet"" facing right', 'playerId': 'cjtnTXrerxbK7pi39'}]",118392,,11,spr-buttons,selection,[],
836,the only one,,,,,,,,,0.0-3.0-1.4,,[],,,,,119297,,12,spr-buttons,feedback,[],
836,the only one,5341,2_rotate_6,True,K,,,,pR4tb8CtSgCLLcMQY,0.0-3.0-0.5,2,[],K,,,"[{'role': 'speaker', 'text': 'kneel in prayer', 'playerId': 'zzGaoZ3hK2qpc5XR6'}]",124642,,13,spr-buttons,selection,[],
836,the only one,,,,,,,,,0.0-3.0-1.5,,[],,,,,125551,,14,spr-buttons,feedback,[],
836,the only one,8685,2_rotate_6,True,B,,,,2928FF7GcrkeFiDkh,0.0-3.0-0.6,5,[],B,,,"[{'role': 'speaker', 'text': 'disconnected triangle arm', 'playerId': '5L7PZWTLhnYMGQE8b'}]",134241,,15,spr-buttons,selection,[],
836,the only one,,,,,,,,,0.0-3.0-1.6,,[],,,,,135154,,16,spr-buttons,feedback,[],
836,the only one,6112,6_rotate_1,False,L,,,,CojwM8x8ZFDB9Y6HF,0.0-3.0-0.7,2,[],K,,,"[{'role': 'speaker', 'text': 'it looks like someone reading a book', 'playerId': 'EzNkXZLQTRPpggasi'}, {'role': 'speaker', 'text': 'facing right', 'playerId': 'EzNkXZLQTRPpggasi'}, {'role': 'speaker', 'text': 'legs slightly bent', 'playerId': 'EzNkXZLQTRPpggasi'}, {'role': 'listener', 'text': 'squatting', 'playerId': 'xWiHkMcWveW5PDkSt'}, {'role': 'listener', 'text': 'squatting with arms out', 'playerId': 'qnjhZ585k3LjuELyR'}, {'role': 'listener', 'text': 'squatter', 'playerId': 'qnjhZ585k3LjuELyR'}, {'role': 'listener', 'text': 'diamond head', 'playerId': '9S5o6znYkBTXL29ZB'}]",141271,,17,spr-buttons,selection,[],
836,the only one,,,,,,,,,0.0-3.0-1.7,,[],,,,,142182,,18,spr-buttons,feedback,[],
836,the only one,8577,2_rotate_1,True,I,,,,2Csg2Snzrpkud2YRi,0.0-3.0-0.8,0,[],I,,,"[{'role': 'speaker', 'text': 'this looks like an animal leaning to the left and standing on one foot', 'playerId': 'DugA5xyi4CvXJWvaC'}]",150764,,19,spr-buttons,selection,[],
836,the only one,,,,,,,,,0.0-3.0-1.8,,[],,,,,151682,,20,spr-buttons,feedback,[],
836,the only one,8465,6_rotate_6,True,C,,,,4mKoevW3ykd2FDr7L,0.0-3.0-0.9,1,[],C,,,"[{'role': 'speaker', 'text': 'parallelogram', 'playerId': 'vwpmmXPfWPvNcd9RA'}, {'role': 'speaker', 'text': '2 arms raised', 'playerId': 'vwpmmXPfWPvNcd9RA'}]",160150,,21,spr-buttons,selection,[],
836,the only one,,,,,,,,,0.0-3.0-1.9,,[],,,,,161059,,22,spr-buttons,feedback,[],
836,the only one,21673,2_rotate_1,True,E,,,,FfK5QXXSw833vwHKX,0.0-3.0-0.10,4,[],E,,,"[{'role': 'speaker', 'text': 'it looks like a sprite on the top of a steep mountain', 'playerId': '6iMbQKiFyJ2YwPaeo'}, {'role': 'speaker', 'text': 'like a mountain with a box on top with wings', 'playerId': '6iMbQKiFyJ2YwPaeo'}]",182738,,23,spr-buttons,selection,[],
836,the only one,,,,,,,,,0.0-3.0-1.10,,[],,,,,183647,,24,spr-buttons,feedback,[],
836,the only one,24515,6_rotate_1,True,A,,,,YcwXqvuyhhCeZ3GSZ,0.0-3.0-0.11,9,[],A,,,"[{'role': 'speaker', 'text': 'this dude is also seems like he is offering something to the sun god', 'playerId': 'TpNRiZ9WuhnFh5qYA'}, {'role': 'listener', 'text': 'so many gifts nice people', 'playerId': 'k2m9jnS9XqzWHCf9i'}, {'role': 'speaker', 'text': 'both of his feet are shown', 'playerId': 'TpNRiZ9WuhnFh5qYA'}, {'role': 'speaker', 'text': 'standing on one foot', 'playerId': 'TpNRiZ9WuhnFh5qYA'}, {'role': 'listener', 'text': 'head looking backwards', 'playerId': 'k2m9jnS9XqzWHCf9i'}, {'role': 'listener', 'text': 'the opposite of the ice skater', 'playerId': 'GLrfDkSxXGqXov7EE'}, {'role': 'speaker', 'text': 'yes his head is backwards', 'playerId': 'TpNRiZ9WuhnFh5qYA'}, {'role': 'speaker', 'text': 'and his other foot is forward', 'playerId': 'TpNRiZ9WuhnFh5qYA'}]",208166,,25,spr-buttons,selection,[],
836,the only one,,,,,,,,,0.0-3.0-1.11,,[],,,,,209088,,26,spr-buttons,feedback,[],
836,the only one,13634,6_rotate_6,True,D,,,,7i3mnwWykEA95fvyk,0.0-3.0-0.12,6,[],D,,,"[{'role': 'speaker', 'text': 'one with basket', 'playerId': '6bYzncKaESZG3XQY3'}, {'role': 'speaker', 'text': 'diamond head', 'playerId': '6bYzncKaESZG3XQY3'}, {'role': 'speaker', 'text': 'facing left', 'playerId': '6bYzncKaESZG3XQY3'}]",222727,,27,spr-buttons,selection,[],
836,the only one,,,,,,,,,0.0-3.0-1.12,,[],,,,,223645,,28,spr-buttons,feedback,[],
836,the only one,7389,6_rotate_1,False,L,,,,aFykNpfLr9BqKdsFL,0.0-3.0-0.13,2,[],K,,,"[{'role': 'speaker', 'text': 'a person praying with their knees bent slightly', 'playerId': 'qioaDCfDaa28TFEA8'}, {'role': 'speaker', 'text': 'facing the right side', 'playerId': 'qioaDCfDaa28TFEA8'}, {'role': 'listener', 'text': 'With pointy tail', 'playerId': 'PGAtCk8Ks2aJygddG'}, {'role': 'speaker', 'text': 'and a straight back', 'playerId': 'qioaDCfDaa28TFEA8'}, {'role': 'listener', 'text': 'triangle sticking out their back', 'playerId': 'PXh3QTj6cPCJnZWk5'}, {'role': 'speaker', 'text': 'no pointy tail the other one', 'playerId': 'qioaDCfDaa28TFEA8'}, {'role': 'listener', 'text': 'arms facing to the right', 'playerId': 'dq4SeJvQf8z6NSWHE'}]",231038,,29,spr-buttons,selection,[],
836,the only one,,,,,,,,,0.0-3.0-1.13,,[],,,,,231957,,30,spr-buttons,feedback,[],
836,the only one,3894,2_rotate_1,True,D,,,,gjooqsuf2CPN5AWxi,0.0-3.0-0.14,6,[],D,,,"[{'role': 'speaker', 'text': 'Looks like someone facing the left, maybe holding out a book or something', 'playerId': 'tuNTPZ2dpnLz8EKgu'}]",235854,,31,spr-buttons,selection,[],
836,the only one,,,,,,,,,0.0-3.0-1.14,,[],,,,,236772,,32,spr-buttons,feedback,[],
836,the only one,38112,6_rotate_1,False,H,,,,93ZvRh5AYPNeTJxjv,0.0-3.0-0.15,5,[],B,,,"[{'role': 'speaker', 'text': 'diamond on top', 'playerId': 'dTAmMQ6Zw5AbRzRiT'}, {'role': 'speaker', 'text': 'then triangle', 'playerId': 'dTAmMQ6Zw5AbRzRiT'}, {'role': 'speaker', 'text': 'then swooshes out to the right', 'playerId': 'dTAmMQ6Zw5AbRzRiT'}, {'role': 'listener', 'text': 'like someone praying', 'playerId': 'EigvT8eA8dqhuxwk6'}, {'role': 'listener', 'text': 'looks like standing sitting praying', 'playerId': '5a7w57CMsYw6nbJgN'}, {'role': 'listener', 'text': 'standing on one leg', 'playerId': 'eJA6FpeTKabMYR8rb'}, {'role': 'speaker', 'text': 'like someone kneeling', 'playerId': 'dTAmMQ6Zw5AbRzRiT'}, {'role': 'listener', 'text': 'kneeling', 'playerId': 'dyTDDFiSuSCvwZD9b'}, {'role': 'listener', 'text': ""That's is the second one to the first one picked"", 'playerId': 'AzXQiedW2MWktvLz4'}, {'role': 'speaker', 'text': 'kneeling', 'playerId': 'dTAmMQ6Zw5AbRzRiT'}, {'role': 'listener', 'text': 'so kneeling not bent legs', 'playerId': 'EigvT8eA8dqhuxwk6'}, {'role': 'speaker', 'text': 'nut maybe bent legs', 'playerId': 'dTAmMQ6Zw5AbRzRiT'}, {'role': 'listener', 'text': 'are knees on the floor or just bent', 'playerId': '5a7w57CMsYw6nbJgN'}, {'role': 'speaker', 'text': 'the legs are to one side', 'playerId': 'dTAmMQ6Zw5AbRzRiT'}]",274879,,33,spr-buttons,selection,[],
836,the only one,,,,,,,,,0.0-3.0-1.15,,[],,,,,275794,,34,spr-buttons,feedback,[],
836,the only one,12609,6_rotate_1,True,A,,,,QiHQvZjkmw7v9k3P4,0.0-3.0-0.16,9,[],A,,,"[{'role': 'speaker', 'text': 'head at the neck', 'playerId': 'Rju3Fq3cNiFHZ94te'}, {'role': 'speaker', 'text': 'facing to the left', 'playerId': 'Rju3Fq3cNiFHZ94te'}, {'role': 'speaker', 'text': 'one leg is raised', 'playerId': 'Rju3Fq3cNiFHZ94te'}, {'role': 'listener', 'text': 'other foot on ground', 'playerId': 'hzsGC7CBSPkMEyDXq'}, {'role': 'listener', 'text': 'has he got a flag', 'playerId': 'mj43ozqpH4CgJjpyz'}, {'role': 'listener', 'text': 'over his shoulder', 'playerId': 'mj43ozqpH4CgJjpyz'}, {'role': 'listener', 'text': 'sq on the shoulder>', 'playerId': 'jEzRik8ujt4jnrqFG'}, {'role': 'speaker', 'text': 'one leg raised', 'playerId': 'Rju3Fq3cNiFHZ94te'}, {'role': 'listener', 'text': ""Head looks like it's leaning backwards"", 'playerId': 'hzsGC7CBSPkMEyDXq'}]",288407,,35,spr-buttons,selection,[],
836,the only one,,,,,,,,,0.0-3.0-1.16,,[],,,,,289314,,36,spr-buttons,feedback,[],
836,the only one,13424,6_rotate_6,False,H,,,,cLaK88862bv7MHMuQ,0.0-3.0-0.17,8,[],G,,,"[{'role': 'speaker', 'text': 'no arms or legs tail to right', 'playerId': 'gd4Mbi8awyKfZgvka'}]",302754,,37,spr-buttons,selection,[],
836,the only one,,,,,,,,,0.0-3.0-1.17,,[],,,,,303673,,38,spr-buttons,feedback,[],
836,the only one,5236,2_rotate_6,True,L,,,,gjooqsuf2CPN5AWxi,0.0-3.0-0.18,11,[],L,,,"[{'role': 'speaker', 'text': 'zig zag legs', 'playerId': 'SzYY9C53Ne7cMaPHC'}]",308914,,39,spr-buttons,selection,[],
836,the only one,,,,,,,,,0.0-3.0-1.18,,[],,,,,309819,,40,spr-buttons,feedback,[],
836,the only one,11717,2_rotate_1,True,E,,,,pAtG6vt3AyaJypa2j,0.0-3.0-0.19,4,[],E,,,"[{'role': 'speaker', 'text': 'This looks like a large triangle on the bottom, with the right angle of the triangle on the left', 'playerId': '3D7MbrSZL62xJBhib'}, {'role': 'speaker', 'text': 'On the top tip of the triangle is a square then two triangles above it', 'playerId': '3D7MbrSZL62xJBhib'}, {'role': 'listener', 'text': 'it looks like a rabbit a bit', 'playerId': 'kNihCF3o2LNDkwQs5'}]",321540,,41,spr-buttons,selection,[],
836,the only one,,,,,,,,,0.0-3.0-1.19,,[],,,,,322458,,42,spr-buttons,feedback,[],
836,the only one,11166,2_rotate_6,True,F,,,,gjooqsuf2CPN5AWxi,0.0-3.0-0.20,10,[],F,,,"[{'role': 'speaker', 'text': 'sitting down knees up to chest', 'playerId': 'SzYY9C53Ne7cMaPHC'}]",333627,,43,spr-buttons,selection,[],
836,the only one,,,,,,,,,0.0-3.0-1.20,,[],,,,,334533,,44,spr-buttons,feedback,[],
836,the only one,12547,6_rotate_6,True,H,,,,znSiJdhs7sWk5xhgA,0.0-3.0-0.21,3,[],H,,,"[{'role': 'speaker', 'text': 'big sack', 'playerId': '4fTnjYS9Cge7Tv7ou'}, {'role': 'speaker', 'text': 'metapod', 'playerId': '4fTnjYS9Cge7Tv7ou'}]",347085,,45,spr-buttons,selection,[],
836,the only one,,,,,,,,,0.0-3.0-1.21,,[],,,,,347993,,46,spr-buttons,feedback,[],
836,the only one,15223,2_rotate_1,False,G,,,,pR4tb8CtSgCLLcMQY,0.0-3.0-0.22,5,[],B,,,"[{'role': 'speaker', 'text': 'square head but the body is messed up', 'playerId': 'jMYJS2ANLmjazynqc'}, {'role': 'speaker', 'text': 'triangles and then no shape', 'playerId': 'jMYJS2ANLmjazynqc'}]",363219,,47,spr-buttons,selection,[],
836,the only one,,,,,,,,,0.0-3.0-1.22,,[],,,,,364141,,48,spr-buttons,feedback,[],
836,the only one,5540,6_rotate_1,True,E,,,,yPMhLu9xFgbC5dWLY,0.0-3.0-0.23,4,[],E,,,"[{'role': 'speaker', 'text': ""ok, looking at it like they're people, this is the one with two things sticking out of its head"", 'playerId': '3HQ2FaXAPXevHQfsd'}, {'role': 'speaker', 'text': 'like someone sitting with their back against a wall looking down', 'playerId': '3HQ2FaXAPXevHQfsd'}, {'role': 'speaker', 'text': 'maybe wearing a bow or something', 'playerId': '3HQ2FaXAPXevHQfsd'}]",369687,,49,spr-buttons,selection,[],
836,the only one,,,,,,,,,0.0-3.0-1.23,,[],,,,,370606,,50,spr-buttons,feedback,[],
836,the only one,15981,2_rotate_1,True,A,,,,8a3bQ2zrC7JzYqEJ6,0.0-3.0-0.24,9,[],A,,,"[{'role': 'speaker', 'text': 'This looks like a person imitating a bear standing on one leg with the other about to make a stride', 'playerId': 'QG9QyuRkmCKFr7dCn'}, {'role': 'listener', 'text': 'is the other leg to the right or left of the straight one', 'playerId': 'yH7KZ9hMajzHzMKGm'}, {'role': 'speaker', 'text': ""It's to the left"", 'playerId': 'QG9QyuRkmCKFr7dCn'}, {'role': 'listener', 'text': 'is the head behind the straight leg', 'playerId': 'yH7KZ9hMajzHzMKGm'}, {'role': 'listener', 'text': 'to the right', 'playerId': 'yH7KZ9hMajzHzMKGm'}, {'role': 'speaker', 'text': 'The head is on the right, yes', 'playerId': 'QG9QyuRkmCKFr7dCn'}]",386591,,51,spr-buttons,selection,[],
836,the only one,,,,,,,,,0.0-3.0-1.24,,[],,,,,387497,,52,spr-buttons,feedback,[],
836,the only one,19259,2_rotate_1,True,G,,,,GpF4Ge9YCd7ih3DFr,0.0-3.0-0.25,8,[],G,,,"[{'role': 'speaker', 'text': 'ok another weird one', 'playerId': 'cjtnTXrerxbK7pi39'}, {'role': 'speaker', 'text': 'head on the left side of body', 'playerId': 'cjtnTXrerxbK7pi39'}, {'role': 'speaker', 'text': 'and then the left side is like a big drape', 'playerId': 'cjtnTXrerxbK7pi39'}, {'role': 'speaker', 'text': 'arms facing right', 'playerId': 'cjtnTXrerxbK7pi39'}, {'role': 'speaker', 'text': 'the left ""leg"" is a big blocky figure', 'playerId': 'cjtnTXrerxbK7pi39'}, {'role': 'speaker', 'text': 'and the right ""foot"" is just a small triangle', 'playerId': 'cjtnTXrerxbK7pi39'}]",406760,,53,spr-buttons,selection,[],
836,the only one,,,,,,,,,0.0-3.0-1.25,,[],,,,,407667,,54,spr-buttons,feedback,[],
836,the only one,14243,2_rotate_6,True,D,,,,YyAyuHf7S76wsbCA6,0.0-3.0-0.26,6,[],D,,,"[{'role': 'speaker', 'text': 'Figure standing, facing left Head looking up to left Has a small pointed triangle foot on bottom left', 'playerId': '7R6jKabotwJFLSyNW'}, {'role': 'speaker', 'text': 'Looks like holding dish on top of a square box', 'playerId': '7R6jKabotwJFLSyNW'}]",421916,,55,spr-buttons,selection,[],
836,the only one,,,,,,,,,0.0-3.0-1.26,,[],,,,,422824,,56,spr-buttons,feedback,[],
836,the only one,6243,6_rotate_1,True,C,,,,znSiJdhs7sWk5xhgA,0.0-3.0-0.27,1,[],C,,,"[{'role': 'speaker', 'text': 'leaning to the left like they have scored a goal', 'playerId': 'HaYEtB56fe33ZSXjw'}, {'role': 'speaker', 'text': 'arms in the air', 'playerId': 'HaYEtB56fe33ZSXjw'}, {'role': 'listener', 'text': 'two arms in the air', 'playerId': 'MJxZ4a3KWksjWMEYq'}, {'role': 'speaker', 'text': 'body slightly diagonal', 'playerId': 'HaYEtB56fe33ZSXjw'}, {'role': 'speaker', 'text': 'yes, either side', 'playerId': 'HaYEtB56fe33ZSXjw'}]",429069,,57,spr-buttons,selection,[],
836,the only one,,,,,,,,,0.0-3.0-1.27,,[],,,,,429984,,58,spr-buttons,feedback,[],
836,the only one,8643,6_rotate_6,False,B,,,,qzNuN6yp4HDWzko6T,0.0-3.0-0.28,4,[],E,,,"[{'role': 'speaker', 'text': 'Weird triangle ponytail girl', 'playerId': 'raCR7oL7mP22ToCrY'}]",438631,,59,spr-buttons,selection,[],
836,the only one,,,,,,,,,0.0-3.0-1.28,,[],,,,,439552,,60,spr-buttons,feedback,[],
836,the only one,41625,6_rotate_1,True,J,,,,qzNuN6yp4HDWzko6T,0.0-3.0-0.29,7,[],J,,,"[{'role': 'speaker', 'text': 'It looks like a person with no legs', 'playerId': 'eAaeMJEcW8LDwgBSn'}, {'role': 'listener', 'text': 'facing right', 'playerId': 'YJbokLWKpcBbGTD8z'}, {'role': 'listener', 'text': 'no arms', 'playerId': 'iv6pB9Y4KpdXvuwFe'}, {'role': 'speaker', 'text': 'is the rarest figure has two points pointing to the right', 'playerId': 'eAaeMJEcW8LDwgBSn'}, {'role': 'listener', 'text': 'square body, like a penguin', 'playerId': 'EoXqRaKYwsdCQXsvi'}, {'role': 'listener', 'text': 'flat back on left', 'playerId': 'YJbokLWKpcBbGTD8z'}, {'role': 'speaker', 'text': 'It looks just like a penguin', 'playerId': 'eAaeMJEcW8LDwgBSn'}]",481182,,61,spr-buttons,selection,[],
836,the only one,,,,,,,,,0.0-3.0-1.29,,[],,,,,482096,,62,spr-buttons,feedback,[],
836,the only one,7224,6_rotate_6,True,H,,,,4mKoevW3ykd2FDr7L,0.0-3.0-0.30,3,[],H,,,"[{'role': 'speaker', 'text': 'no limbs', 'playerId': 'vwpmmXPfWPvNcd9RA'}, {'role': 'speaker', 'text': 'triangle shoulders', 'playerId': 'vwpmmXPfWPvNcd9RA'}, {'role': 'speaker', 'text': 'bottom right is pointed', 'playerId': 'vwpmmXPfWPvNcd9RA'}, {'role': 'speaker', 'text': 'hexagonish', 'playerId': 'vwpmmXPfWPvNcd9RA'}]",489325,,63,spr-buttons,selection,[],
836,the only one,,,,,,,,,0.0-3.0-1.30,,[],,,,,490244,,64,spr-buttons,feedback,[],
836,the only one,5948,6_rotate_6,False,I,,,,57QkWqXASdPMDFRmA,0.0-3.0-0.31,9,[],A,,,"[{'role': 'speaker', 'text': 'ice skater', 'playerId': 'G2cRaG8fekyPR6Msn'}, {'role': 'speaker', 'text': 'facing left', 'playerId': 'G2cRaG8fekyPR6Msn'}]",496197,,65,spr-buttons,selection,[],
836,the only one,,,,,,,,,0.0-3.0-1.31,,[],,,,,497102,,66,spr-buttons,feedback,[],
836,the only one,1121,2_rotate_6,True,E,,,,hu2zy5uGrN4qJ7qqe,0.0-3.0-0.32,4,[],E,,,"[{'role': 'speaker', 'text': 'bunny ears', 'playerId': 'p7qxLz4WrSqvxaYy3'}]",498235,,67,spr-buttons,selection,[],
836,the only one,,,,,,,,,0.0-3.0-1.32,,[],,,,,499152,,68,spr-buttons,feedback,[],
836,the only one,6974,2_rotate_1,True,L,,,,hu2zy5uGrN4qJ7qqe,0.0-3.0-0.33,11,[],L,,,"[{'role': 'speaker', 'text': 'this picture looks like a person with his arms out, and his legs bent', 'playerId': 'xwCpnpj4eoCiFYeCE'}, {'role': 'listener', 'text': ""Do they look like they're kneeling"", 'playerId': 'p7qxLz4WrSqvxaYy3'}, {'role': 'speaker', 'text': 'yes they look like they are partially leaning', 'playerId': 'xwCpnpj4eoCiFYeCE'}]",506127,,69,spr-buttons,selection,[],
836,the only one,,,,,,,,,0.0-3.0-1.33,,[],,,,,507044,,70,spr-buttons,feedback,[],
836,the only one,3933,2_rotate_1,True,H,,,,2Csg2Snzrpkud2YRi,0.0-3.0-0.34,3,[],H,,,"[{'role': 'speaker', 'text': 'this is a very solid mass, not a lot of angles', 'playerId': 'DugA5xyi4CvXJWvaC'}, {'role': 'speaker', 'text': 'diamond on the top in the center', 'playerId': 'DugA5xyi4CvXJWvaC'}]",510981,,71,spr-buttons,selection,[],
836,the only one,,,,,,,,,0.0-3.0-1.34,,[],,,,,511890,,72,spr-buttons,feedback,[],
836,the only one,1302,2_rotate_6,True,E,,,,pR4tb8CtSgCLLcMQY,0.0-3.0-0.35,4,[],E,,,"[{'role': 'speaker', 'text': 'bunny', 'playerId': 'zzGaoZ3hK2qpc5XR6'}]",513196,,73,spr-buttons,selection,[],
836,the only one,,,,,,,,,0.0-3.0-1.35,,[],,,,,514102,,74,spr-buttons,feedback,[],
836,the only one,6848,2_rotate_1,False,A,,,,2Csg2Snzrpkud2YRi,0.0-3.0-0.36,0,[],I,,,"[{'role': 'speaker', 'text': 'this looks like a tall bear walking with one foot up in the air', 'playerId': 'DugA5xyi4CvXJWvaC'}]",520952,,75,spr-buttons,selection,[],
836,the only one,,,,,,,,,0.0-3.0-1.36,,[],,,,,521860,,76,spr-buttons,feedback,[],
836,the only one,2702,2_rotate_6,True,C,,,,pR4tb8CtSgCLLcMQY,0.0-3.0-0.37,1,[],C,,,"[{'role': 'speaker', 'text': 'scaring man', 'playerId': 'zzGaoZ3hK2qpc5XR6'}]",524564,,77,spr-buttons,selection,[],
836,the only one,,,,,,,,,0.0-3.0-1.37,,[],,,,,525478,,78,spr-buttons,feedback,[],
836,the only one,8181,2_rotate_6,False,J,,,,FfK5QXXSw833vwHKX,0.0-3.0-0.38,9,[],A,,,"[{'role': 'speaker', 'text': 'boot 2', 'playerId': 'psDWD9d3xQGdFFP7Q'}]",533662,,79,spr-buttons,selection,[],
836,the only one,,,,,,,,,0.0-3.0-1.38,,[],,,,,534575,,80,spr-buttons,feedback,[],
836,the only one,2730,2_rotate_6,True,F,,,,pAtG6vt3AyaJypa2j,0.0-3.0-0.39,10,[],F,,,"[{'role': 'speaker', 'text': 'sitting knees up', 'playerId': 'kNihCF3o2LNDkwQs5'}]",537310,,81,spr-buttons,selection,[],
836,the only one,,,,,,,,,0.0-3.0-1.39,,[],,,,,538226,,82,spr-buttons,feedback,[],
836,the only one,4788,6_rotate_6,True,L,,,,nySo3NiJX7Kres7zm,0.0-3.0-0.40,11,[],L,,,"[{'role': 'speaker', 'text': 'Taking a dump', 'playerId': 'ugNcH6z9oWCzD3uHh'}]",543016,,83,spr-buttons,selection,[],
836,the only one,,,,,,,,,0.0-3.0-1.40,,[],,,,,543930,,84,spr-buttons,feedback,[],
836,the only one,6266,6_rotate_1,True,C,,,,57QkWqXASdPMDFRmA,0.0-3.0-0.41,1,[],C,,,"[{'role': 'speaker', 'text': 'person raising both arms', 'playerId': 'foLY9seHz9WKw4HPk'}, {'role': 'speaker', 'text': 'not centered', 'playerId': 'foLY9seHz9WKw4HPk'}, {'role': 'listener', 'text': 'no legs at all', 'playerId': 'G2cRaG8fekyPR6Msn'}, {'role': 'listener', 'text': 'like a ghost', 'playerId': 'kSyYrH7xx66AeKjLF'}, {'role': 'speaker', 'text': 'no legs', 'playerId': 'foLY9seHz9WKw4HPk'}, {'role': 'listener', 'text': 'What direction are the arms', 'playerId': '4G9hab5MLzr3hzwbK'}, {'role': 'listener', 'text': 'leaning right over to left', 'playerId': 'G2cRaG8fekyPR6Msn'}, {'role': 'listener', 'text': 'tilt to left', 'playerId': 'PhukZyyqKFDxhsjYv'}, {'role': 'speaker', 'text': 'a bit to the left', 'playerId': 'foLY9seHz9WKw4HPk'}]",550202,,85,spr-buttons,selection,[],
836,the only one,,,,,,,,,0.0-3.0-1.41,,[],,,,,551117,,86,spr-buttons,feedback,[],
836,the only one,1698,6_rotate_6,False,K,,,,CojwM8x8ZFDB9Y6HF,0.0-3.0-0.42,1,[],C,,,"[{'role': 'speaker', 'text': 'Triangle pointing upwards on bottom left', 'playerId': 'WJorh6puwn4WDQkk3'}, {'role': 'speaker', 'text': 'Looks like pacman with a small tail and two diamonds stacked on top', 'playerId': 'WJorh6puwn4WDQkk3'}, {'role': 'listener', 'text': 'like the lying down dog', 'playerId': 'EzNkXZLQTRPpggasi'}, {'role': 'listener', 'text': 'only one with two diamonds stacked on top, top left', 'playerId': 'qnjhZ585k3LjuELyR'}, {'role': 'listener', 'text': ""bottom diamond is going into pac man's head"", 'playerId': 'qnjhZ585k3LjuELyR'}, {'role': 'speaker', 'text': 'Second diamond is partially fused into a bigger shape', 'playerId': 'WJorh6puwn4WDQkk3'}, {'role': 'listener', 'text': 'kneeling', 'playerId': 'EzNkXZLQTRPpggasi'}, {'role': 'listener', 'text': 'yea kneeling', 'playerId': 'xWiHkMcWveW5PDkSt'}, {'role': 'listener', 'text': 'Yeah No visible feet', 'playerId': 'QZSeme5xzuLDA8Zop'}]",552819,,87,spr-buttons,selection,[],
836,the only one,,,,,,,,,0.0-3.0-1.42,,[],,,,,553724,,88,spr-buttons,feedback,[],
836,the only one,15986,6_rotate_1,True,A,,,,fvaDCsGFedLr7w3Ra,0.0-3.0-0.43,9,[],A,,,"[{'role': 'speaker', 'text': 'Looks as if it has two legs, is kicking one of them out to the left', 'playerId': 'xpptKsHRbyPCwjxab'}, {'role': 'speaker', 'text': 'Head is to the right', 'playerId': 'xpptKsHRbyPCwjxab'}, {'role': 'listener', 'text': 'Head is on a slanted down to the right slope', 'playerId': 'JJshSXKd5HReQYKhY'}, {'role': 'listener', 'text': 'head is a square', 'playerId': '3pzGvNZm26GuHfxFv'}]",569712,,89,spr-buttons,selection,[],
836,the only one,,,,,,,,,0.0-3.0-1.43,,[],,,,,570617,,90,spr-buttons,feedback,[],
836,the only one,6902,2_rotate_1,True,J,,,,gjooqsuf2CPN5AWxi,0.0-3.0-0.44,7,[],J,,,"[{'role': 'speaker', 'text': 'Looks like a very short person, with an overhanging belly', 'playerId': 'tuNTPZ2dpnLz8EKgu'}, {'role': 'speaker', 'text': 'arms out in front, at shoulder height', 'playerId': 'tuNTPZ2dpnLz8EKgu'}, {'role': 'listener', 'text': 'does it have a pointy bit in the top right', 'playerId': 'SzYY9C53Ne7cMaPHC'}, {'role': 'speaker', 'text': ""Yes, a diamond right on the top- the head, but a triangle point to the top right of the 'body'"", 'playerId': 'tuNTPZ2dpnLz8EKgu'}]",577524,,91,spr-buttons,selection,[],
836,the only one,,,,,,,,,0.0-3.0-1.44,,[],,,,,578442,,92,spr-buttons,feedback,[],
836,the only one,34160,6_rotate_1,True,G,,,,cLaK88862bv7MHMuQ,0.0-3.0-0.45,8,[],G,,,"[{'role': 'speaker', 'text': 'small triangle on right-hand side of picture 2 heads, one square in top-left of picture', 'playerId': 'XgpZ3ySCe7xA9xome'}, {'role': 'speaker', 'text': 'Flat bottom in bottom-right hand side of picture', 'playerId': 'XgpZ3ySCe7xA9xome'}, {'role': 'speaker', 'text': 'Thin chest', 'playerId': 'XgpZ3ySCe7xA9xome'}, {'role': 'speaker', 'text': 'Small triangle pointing out to the left at the top of the chest', 'playerId': 'XgpZ3ySCe7xA9xome'}, {'role': 'listener', 'text': 'looks like 2 stacked triangles', 'playerId': 'pmjHghWjJcPehsTL4'}, {'role': 'listener', 'text': 'In the chest area', 'playerId': 'pmjHghWjJcPehsTL4'}, {'role': 'speaker', 'text': 'Small triangle foot on in bottom-right of picture barely attached', 'playerId': 'XgpZ3ySCe7xA9xome'}]",612607,,93,spr-buttons,selection,[],
836,the only one,,,,,,,,,0.0-3.0-1.45,,[],,,,,613522,,94,spr-buttons,feedback,[],
836,the only one,19039,6_rotate_1,False,B,,,,6bkpQbsv6wvHWczvB,0.0-3.0-0.46,0,[],I,,,"[{'role': 'speaker', 'text': 'this one looks like an animal facing the left of the screen', 'playerId': 'pNzsWQrabqXgTRTpu'}, {'role': 'speaker', 'text': 'with a pointy nose', 'playerId': 'pNzsWQrabqXgTRTpu'}, {'role': 'speaker', 'text': ""and a square on their head that's only slightly angled"", 'playerId': 'pNzsWQrabqXgTRTpu'}, {'role': 'speaker', 'text': 'and a triangle on the back of its head rotated 90 degrees', 'playerId': 'pNzsWQrabqXgTRTpu'}, {'role': 'speaker', 'text': 'with the flat piece facing the LEFT of your screen', 'playerId': 'pNzsWQrabqXgTRTpu'}, {'role': 'listener', 'text': 'hockey player', 'playerId': '5LJfKFwCaZ5exES48'}, {'role': 'speaker', 'text': 'no looks like an animal with a pointy nose facing the left of the screen', 'playerId': 'pNzsWQrabqXgTRTpu'}, {'role': 'listener', 'text': ""He's like looking at his feet"", 'playerId': 'Chjp2rtMWxtmo8NPc'}, {'role': 'speaker', 'text': 'it almost looks shorter than the rest', 'playerId': 'pNzsWQrabqXgTRTpu'}, {'role': 'speaker', 'text': 'looking straight to the left of your screen', 'playerId': 'pNzsWQrabqXgTRTpu'}, {'role': 'speaker', 'text': 'just a little triangle for feet', 'playerId': 'pNzsWQrabqXgTRTpu'}, {'role': 'speaker', 'text': 'that are also facing the left of the screen', 'playerId': 'pNzsWQrabqXgTRTpu'}, {'role': 'speaker', 'text': 'there is a square and a triangle on the top of its head', 'playerId': 'pNzsWQrabqXgTRTpu'}]",632566,,95,spr-buttons,selection,[],
836,the only one,,,,,,,,,0.0-3.0-1.46,,[],,,,,633486,,96,spr-buttons,feedback,[],
836,the only one,16522,6_rotate_6,True,F,,,,57QkWqXASdPMDFRmA,0.0-3.0-0.47,10,[],F,,,"[{'role': 'speaker', 'text': 'sad man', 'playerId': 'G2cRaG8fekyPR6Msn'}, {'role': 'speaker', 'text': 'facing left sitting', 'playerId': 'G2cRaG8fekyPR6Msn'}]",650013,,97,spr-buttons,selection,[],
836,the only one,,,,,,,,,0.0-3.0-1.47,,[],,,,,650923,,98,spr-buttons,feedback,[],
836,the only one,10643,2_rotate_6,True,H,,,,YyAyuHf7S76wsbCA6,0.0-3.0-0.48,3,[],H,,,"[{'role': 'speaker', 'text': 'Figure sitting down Head looking up to right No arms or hands showing', 'playerId': '7R6jKabotwJFLSyNW'}]",661570,,99,spr-buttons,selection,[],
836,the only one,,,,,,,,,0.0-3.0-1.48,,[],,,,,662487,,100,spr-buttons,feedback,[],
836,the only one,16405,6_rotate_1,True,L,,,,qzNuN6yp4HDWzko6T,0.0-3.0-0.49,11,[],L,,,"[{'role': 'speaker', 'text': 'Slightly bent person holding something', 'playerId': 'eAaeMJEcW8LDwgBSn'}, {'role': 'listener', 'text': ""as though they're bent at the knees"", 'playerId': 'EoXqRaKYwsdCQXsvi'}, {'role': 'speaker', 'text': 'His knees and arms point to the right', 'playerId': 'eAaeMJEcW8LDwgBSn'}, {'role': 'listener', 'text': 'is it facing right or left', 'playerId': 'iv6pB9Y4KpdXvuwFe'}, {'role': 'listener', 'text': 'Leg up', 'playerId': 'YJbokLWKpcBbGTD8z'}]",678898,,101,spr-buttons,selection,[],
836,the only one,214,,,,,,,,0.0-3.0-1.49,11,[],,,,,679113,,102,spr-buttons,feedback,[],
836,the only one,3061,2_rotate_6,True,A,,,,gjooqsuf2CPN5AWxi,0.0-3.0-0.50,9,[],A,,,"[{'role': 'speaker', 'text': 'one leg, kicking a ball', 'playerId': 'SzYY9C53Ne7cMaPHC'}]",682177,,103,spr-buttons,selection,[],
