workerid,proliferate.condition,button_rt,condition,correct,correct_tangram,failed_audio,failed_images,failed_video,gameId,internal_node_id,response,rt,selected,stimulus,success,text,time_elapsed,timeout,trial_index,trial_type,type,word,error
782,the one true condition,,,,,[],[],[],,0.0-0.0,,,,,True,,43,False,0,preload,,,
782,the one true condition,,,,,,,,,0.0-1.0,0,8823,," <center><img width=""300px"" src=""assets/stanford.png"" /></center><div id=""legal""></br>By answering the following questions, you are participating in a study being performed by cognitive scientists in the Stanford Department of Psychology. If you have questions about this research, please contact us at  <a href=""mailto://languagecoglab@gmail.com.""> languagecoglab@gmail.com</a>.You must be at least 18 years old to participate. Your participation in this research is voluntary. You may decline to answer any or all of the following questions. You may decline further participation, at any time, without adverse consequences. Your anonymity is assured; the researchers who have requested your participation will not receive any personal information about you. </div></br>",,,8869,,1,html-button-response,,,
782,the one true condition,,,,,,,,,0.0-2.0,0,80035,,"<h3>Please read these instructions carefully!</h3> </br><div id=""intro""> <p>In this task, you will see a <b>transcript of a conversation</b> some previous participants had where a <b>speaker identified one the images to some listeners</b>.</p></br><center><img width=""600px"" src=""assets/demo.png"" /></center></br><p>Your goal is to <b>read the transcript</b> and <b>figure out which image</b> is being described! </p><p>You will <b>click the image</b> you think is being described, and then you will <b>find out if you were right</b>.<p><p>You will see <b>60 trials</b>. The image choices will stay the same, but the transcripts will come from different groups of people. Some of the transcripts may be much shorter or longer than others. Some of the descriptions may be hard to understand -- just take a guess if you are not sure.</p><p>You will get a bonus of <b>5 cents</b> for each image you get right! </p><p> <b>Note:</b> These descriptions came from real people and may contain inappropriate or offensive language. If you find a description innappropriate, please let us know via Prolific message or in the exit survey, so we can filter it out in the future.</p>",,,88906,,2,html-button-response,,,
782,the one true condition,7503,6_rotate,True,D,,,,7i3mnwWykEA95fvyk,0.0-3.0-0.0,8,[],D,,,"[{'role': 'speaker', 'text': 'holding object out to left', 'playerId': 'zKzojrwHz2R6wEi3M'}, {'role': 'listener', 'text': 'like a basket', 'playerId': '6bYzncKaESZG3XQY3'}, {'role': 'speaker', 'text': 'left foot pointing out to left', 'playerId': 'zKzojrwHz2R6wEi3M'}, {'role': 'speaker', 'text': 'basket yes', 'playerId': 'zKzojrwHz2R6wEi3M'}, {'role': 'listener', 'text': 'triangle on the back', 'playerId': 'xMcZMZoajc3znxvFH'}, {'role': 'listener', 'text': 'left foot in the air', 'playerId': 'HPXeHqtHCBw7Cg7WX'}, {'role': 'speaker', 'text': 'no feet in the air', 'playerId': 'zKzojrwHz2R6wEi3M'}, {'role': 'speaker', 'text': 'person just standing', 'playerId': 'zKzojrwHz2R6wEi3M'}, {'role': 'speaker', 'text': 'bottom corner right angle', 'playerId': 'zKzojrwHz2R6wEi3M'}, {'role': 'speaker', 'text': 'right corner', 'playerId': 'zKzojrwHz2R6wEi3M'}]",96412,,3,spr-buttons,selection,[],
782,the one true condition,,,,,,,,,0.0-3.0-1.0,,[],,,,,97320,,4,spr-buttons,feedback,[],
782,the one true condition,3566,6_rotate,True,H,,,,4mKoevW3ykd2FDr7L,0.0-3.0-0.1,11,[],H,,,"[{'role': 'speaker', 'text': 'no limbs', 'playerId': 'vwpmmXPfWPvNcd9RA'}, {'role': 'speaker', 'text': 'triangle shoulders', 'playerId': 'vwpmmXPfWPvNcd9RA'}, {'role': 'speaker', 'text': 'bottom right is pointed', 'playerId': 'vwpmmXPfWPvNcd9RA'}, {'role': 'speaker', 'text': 'hexagonish', 'playerId': 'vwpmmXPfWPvNcd9RA'}]",100887,,5,spr-buttons,selection,[],
782,the one true condition,,,,,,,,,0.0-3.0-1.1,,[],,,,,101794,,6,spr-buttons,feedback,[],
782,the one true condition,4944,6_rotate,False,G,,,,6bkpQbsv6wvHWczvB,0.0-3.0-0.2,0,[],C,,,"[{'role': 'speaker', 'text': 'this one looks like a guy leaning backwards resting on his arms face the left of your screen, and they have a rotated square and a triangle on their head', 'playerId': 'pNzsWQrabqXgTRTpu'}, {'role': 'speaker', 'text': 'their ""arm"" is an upside down triangle', 'playerId': 'pNzsWQrabqXgTRTpu'}, {'role': 'listener', 'text': 'like a guy is falling backward', 'playerId': '5LJfKFwCaZ5exES48'}, {'role': 'speaker', 'text': 'no like they are leaning backwards', 'playerId': 'pNzsWQrabqXgTRTpu'}, {'role': 'speaker', 'text': 'half leaning half laying', 'playerId': 'pNzsWQrabqXgTRTpu'}, {'role': 'speaker', 'text': 'there is an upside down triangle for their arm', 'playerId': 'pNzsWQrabqXgTRTpu'}, {'role': 'speaker', 'text': 'and they are facing the left of your screen', 'playerId': 'pNzsWQrabqXgTRTpu'}, {'role': 'speaker', 'text': 'there is a rotated square on the left side of their head', 'playerId': 'pNzsWQrabqXgTRTpu'}, {'role': 'speaker', 'text': 'and a triangle rotated 45 degrees on the left side of their head', 'playerId': 'pNzsWQrabqXgTRTpu'}]",106739,,7,spr-buttons,selection,[],
782,the one true condition,,,,,,,,,0.0-3.0-1.2,,[],,,,,107648,,8,spr-buttons,feedback,[],
782,the one true condition,3142,6_rotate,True,D,,,,YcwXqvuyhhCeZ3GSZ,0.0-3.0-0.3,8,[],D,,,"[{'role': 'speaker', 'text': 'priest with book', 'playerId': 't72k5QhnBy6LkmMFf'}]",110791,,9,spr-buttons,selection,[],
782,the one true condition,,,,,,,,,0.0-3.0-1.3,,[],,,,,111700,,10,spr-buttons,feedback,[],
782,the one true condition,7998,2_rotate,True,G,,,,gjooqsuf2CPN5AWxi,0.0-3.0-0.4,5,[],G,,,"[{'role': 'speaker', 'text': 'weird shape body, triangle bottom right', 'playerId': 'SzYY9C53Ne7cMaPHC'}]",119700,,11,spr-buttons,selection,[],
782,the one true condition,,,,,,,,,0.0-3.0-1.4,,[],,,,,120608,,12,spr-buttons,feedback,[],
782,the one true condition,3756,2_rotate,False,K,,,,YyAyuHf7S76wsbCA6,0.0-3.0-0.5,5,[],G,,,"[{'role': 'speaker', 'text': 'Figure kneeling to right Has a triangle tail on the bottom left', 'playerId': '7R6jKabotwJFLSyNW'}]",124366,,13,spr-buttons,selection,[],
782,the one true condition,,,,,,,,,0.0-3.0-1.5,,[],,,,,125273,,14,spr-buttons,feedback,[],
782,the one true condition,3329,2_rotate,True,C,,,,52Z92z3wj7TxhCe3X,0.0-3.0-0.6,0,[],C,,,"[{'role': 'speaker', 'text': ""Shoulders up - sort of like 'why me ' - box head is further to the left"", 'playerId': 'YjxxewuyohjoySxSn'}]",128602,,15,spr-buttons,selection,[],
782,the one true condition,,,,,,,,,0.0-3.0-1.6,,[],,,,,129508,,16,spr-buttons,feedback,[],
782,the one true condition,9119,2_rotate,False,E,,,,3A9hhryuHHeDQhoGy,0.0-3.0-0.7,9,[],B,,,"[{'role': 'speaker', 'text': 'player sitting facing right', 'playerId': 'CWk6Fmq7GL3ktEozG'}]",138629,,17,spr-buttons,selection,[],
782,the one true condition,,,,,,,,,0.0-3.0-1.7,,[],,,,,139536,,18,spr-buttons,feedback,[],
782,the one true condition,1800,2_rotate,True,C,,,,hu2zy5uGrN4qJ7qqe,0.0-3.0-0.8,0,[],C,,,"[{'role': 'speaker', 'text': '\\\\', 'playerId': 'p7qxLz4WrSqvxaYy3'}]",141337,,19,spr-buttons,selection,[],
782,the one true condition,,,,,,,,,0.0-3.0-1.8,,[],,,,,142243,,20,spr-buttons,feedback,[],
782,the one true condition,4659,2_rotate,True,F,,,,BLSAokwRgraiCPo9R,0.0-3.0-0.9,2,[],F,,,"[{'role': 'speaker', 'text': 'Sitting against a wall, diamond head, no bunny ears', 'playerId': 'fEZ4SiL7SCcPWuGZi'}, {'role': 'speaker', 'text': 'feet and legs visible', 'playerId': 'fEZ4SiL7SCcPWuGZi'}, {'role': 'listener', 'text': 'like leaning on a wall to the right', 'playerId': 'yeGgqdipRGXtPNcpu'}, {'role': 'listener', 'text': 'with legs out to the left', 'playerId': 'yeGgqdipRGXtPNcpu'}, {'role': 'speaker', 'text': 'yes with the legs visible not the blob one', 'playerId': 'fEZ4SiL7SCcPWuGZi'}]",146904,,21,spr-buttons,selection,[],
782,the one true condition,,,,,,,,,0.0-3.0-1.9,,[],,,,,147810,,22,spr-buttons,feedback,[],
782,the one true condition,8941,6_rotate,False,G,,,,QiHQvZjkmw7v9k3P4,0.0-3.0-0.10,8,[],D,,,"[{'role': 'speaker', 'text': 'a triangle on the floor', 'playerId': 'Rju3Fq3cNiFHZ94te'}, {'role': 'speaker', 'text': 'a rectangle on the floor', 'playerId': 'Rju3Fq3cNiFHZ94te'}, {'role': 'speaker', 'text': 'square facing to the left', 'playerId': 'Rju3Fq3cNiFHZ94te'}, {'role': 'listener', 'text': 'any arms', 'playerId': 'mj43ozqpH4CgJjpyz'}, {'role': 'listener', 'text': 'is the square at the top', 'playerId': 'hzsGC7CBSPkMEyDXq'}, {'role': 'speaker', 'text': 'heads facing to the right', 'playerId': 'Rju3Fq3cNiFHZ94te'}, {'role': 'listener', 'text': ""does it look like it's sitting down"", 'playerId': 'hJDoTe5Qoa4q2ejTt'}, {'role': 'listener', 'text': 'with hands to the back', 'playerId': 'hJDoTe5Qoa4q2ejTt'}, {'role': 'listener', 'text': 'any arms', 'playerId': 'jEzRik8ujt4jnrqFG'}, {'role': 'listener', 'text': 'does it have bunny ears', 'playerId': 'hJDoTe5Qoa4q2ejTt'}, {'role': 'speaker', 'text': 'one arm attached to the leg', 'playerId': 'Rju3Fq3cNiFHZ94te'}, {'role': 'speaker', 'text': 'like a triangle attached to the leg', 'playerId': 'Rju3Fq3cNiFHZ94te'}]",156751,,23,spr-buttons,selection,[],
782,the one true condition,,,,,,,,,0.0-3.0-1.10,,[],,,,,157657,,24,spr-buttons,feedback,[],
782,the one true condition,1912,2_rotate,True,F,,,,2928FF7GcrkeFiDkh,0.0-3.0-0.11,2,[],F,,,"[{'role': 'speaker', 'text': 'Sitting on the ground facing left', 'playerId': 'okkXLvTuqNbsZkBZ2'}]",159571,,25,spr-buttons,selection,[],
782,the one true condition,,,,,,,,,0.0-3.0-1.11,,[],,,,,160477,,26,spr-buttons,feedback,[],
782,the one true condition,4750,6_rotate,True,L,,,,znSiJdhs7sWk5xhgA,0.0-3.0-0.12,1,[],L,,,"[{'role': 'speaker', 'text': 'kneeling, but NO tail', 'playerId': '4fTnjYS9Cge7Tv7ou'}, {'role': 'speaker', 'text': 'facing right', 'playerId': '4fTnjYS9Cge7Tv7ou'}]",165228,,27,spr-buttons,selection,[],
782,the one true condition,,,,,,,,,0.0-3.0-1.12,,[],,,,,166134,,28,spr-buttons,feedback,[],
782,the one true condition,2321,6_rotate,True,H,,,,k4otZKu35xehtF93F,0.0-3.0-0.13,11,[],H,,,"[{'role': 'speaker', 'text': 'a baby in a blanket', 'playerId': '2uEiLua7RSNzB3CP8'}, {'role': 'speaker', 'text': 'with his feet pointing out to the right', 'playerId': '2uEiLua7RSNzB3CP8'}, {'role': 'speaker', 'text': 'no limbs sticking out', 'playerId': '2uEiLua7RSNzB3CP8'}, {'role': 'listener', 'text': 'Different description from baby Other resemblance', 'playerId': 'Sb5t7YLhHirE7JfNH'}, {'role': 'listener', 'text': 'feet pointing to the right', 'playerId': 'ybQ6avjhBa46uuw8Z'}, {'role': 'speaker', 'text': 'man sitting by a wall except has no lower legs', 'playerId': '2uEiLua7RSNzB3CP8'}, {'role': 'speaker', 'text': 'and no arms', 'playerId': '2uEiLua7RSNzB3CP8'}, {'role': 'speaker', 'text': 'sitting on a wall on the left', 'playerId': '2uEiLua7RSNzB3CP8'}]",168455,,29,spr-buttons,selection,[],
782,the one true condition,,,,,,,,,0.0-3.0-1.13,,[],,,,,169362,,30,spr-buttons,feedback,[],
782,the one true condition,2351,6_rotate,True,G,,,,znSiJdhs7sWk5xhgA,0.0-3.0-0.14,5,[],G,,,"[{'role': 'speaker', 'text': 'graceful pose', 'playerId': '4fTnjYS9Cge7Tv7ou'}, {'role': 'speaker', 'text': '""italy""', 'playerId': '4fTnjYS9Cge7Tv7ou'}]",171714,,31,spr-buttons,selection,[],
782,the one true condition,,,,,,,,,0.0-3.0-1.14,,[],,,,,172620,,32,spr-buttons,feedback,[],
782,the one true condition,6236,2_rotate,True,L,,,,2928FF7GcrkeFiDkh,0.0-3.0-0.15,1,[],L,,,"[{'role': 'speaker', 'text': ""wonder what he's moping about this round is backwards Z"", 'playerId': '5L7PZWTLhnYMGQE8b'}]",178858,,33,spr-buttons,selection,[],
782,the one true condition,,,,,,,,,0.0-3.0-1.15,,[],,,,,179764,,34,spr-buttons,feedback,[],
782,the one true condition,1938,2_rotate,True,G,,,,2928FF7GcrkeFiDkh,0.0-3.0-0.16,5,[],G,,,"[{'role': 'speaker', 'text': 'backwards C', 'playerId': '5L7PZWTLhnYMGQE8b'}]",181701,,35,spr-buttons,selection,[],
782,the one true condition,,,,,,,,,0.0-3.0-1.16,,[],,,,,182672,,36,spr-buttons,feedback,[],
782,the one true condition,1959,6_rotate,True,C,,,,YcwXqvuyhhCeZ3GSZ,0.0-3.0-0.17,0,[],C,,,"[{'role': 'speaker', 'text': 'flying one', 'playerId': 't72k5QhnBy6LkmMFf'}, {'role': 'speaker', 'text': 'or falling', 'playerId': 't72k5QhnBy6LkmMFf'}]",184631,,37,spr-buttons,selection,[],
782,the one true condition,,,,,,,,,0.0-3.0-1.17,,[],,,,,185538,,38,spr-buttons,feedback,[],
782,the one true condition,1426,6_rotate,True,E,,,,znSiJdhs7sWk5xhgA,0.0-3.0-0.18,3,[],E,,,"[{'role': 'speaker', 'text': 'bunny ears', 'playerId': '4fTnjYS9Cge7Tv7ou'}]",186966,,39,spr-buttons,selection,[],
782,the one true condition,,,,,,,,,0.0-3.0-1.18,,[],,,,,187873,,40,spr-buttons,feedback,[],
782,the one true condition,1521,2_rotate,True,D,,,,2Csg2Snzrpkud2YRi,0.0-3.0-0.19,8,[],D,,,"[{'role': 'speaker', 'text': 'diploma to the left', 'playerId': 'zyXatFB2smLy5NLCL'}]",189396,,41,spr-buttons,selection,[],
782,the one true condition,,,,,,,,,0.0-3.0-1.19,,[],,,,,190302,,42,spr-buttons,feedback,[],
782,the one true condition,5171,2_rotate,True,A,,,,pAtG6vt3AyaJypa2j,0.0-3.0-0.20,4,[],A,,,"[{'role': 'speaker', 'text': 'walking, triangle head pointing down', 'playerId': 'kNihCF3o2LNDkwQs5'}]",195475,,43,spr-buttons,selection,[],
782,the one true condition,,,,,,,,,0.0-3.0-1.20,,[],,,,,196422,,44,spr-buttons,feedback,[],
782,the one true condition,4856,2_rotate,False,G,,,,52Z92z3wj7TxhCe3X,0.0-3.0-0.21,4,[],A,,,"[{'role': 'speaker', 'text': 'Box on the left Looks a bit like a seal lying down Triangle bottom right and top right Slim neck, and lower portion of the body sort of falls to the left', 'playerId': 'YjxxewuyohjoySxSn'}]",201279,,45,spr-buttons,selection,[],
782,the one true condition,,,,,,,,,0.0-3.0-1.21,,[],,,,,202185,,46,spr-buttons,feedback,[],
782,the one true condition,6535,2_rotate,True,F,,,,Ja6HX8DgvFAspRAYm,0.0-3.0-0.22,2,[],F,,,"[{'role': 'speaker', 'text': 'This looks like someone sitting down Their back is to the right, and they are facing left Their head is slightly tilted down Their knees are pointed up as well', 'playerId': 'QnqvYmzn62jtaac7w'}]",208722,,47,spr-buttons,selection,[],
782,the one true condition,,,,,,,,,0.0-3.0-1.22,,[],,,,,209656,,48,spr-buttons,feedback,[],
782,the one true condition,4453,2_rotate,True,J,,,,of4gY8Bu37PbmkPee,0.0-3.0-0.23,10,[],J,,,"[{'role': 'speaker', 'text': 'straight left', 'playerId': '7NrLvX7rfwB2y54ZF'}, {'role': 'speaker', 'text': 'diamond top', 'playerId': '7NrLvX7rfwB2y54ZF'}]",214110,,49,spr-buttons,selection,[],
782,the one true condition,,,,,,,,,0.0-3.0-1.23,,[],,,,,215101,,50,spr-buttons,feedback,[],
782,the one true condition,4521,6_rotate,False,B,,,,7i3mnwWykEA95fvyk,0.0-3.0-0.24,0,[],C,,,"[{'role': 'speaker', 'text': 'flying nun', 'playerId': '6bYzncKaESZG3XQY3'}, {'role': 'speaker', 'text': 'split on upper body', 'playerId': '6bYzncKaESZG3XQY3'}, {'role': 'listener', 'text': 'split in the middle', 'playerId': 'zKzojrwHz2R6wEi3M'}, {'role': 'speaker', 'text': 'triangle arms sticking out', 'playerId': '6bYzncKaESZG3XQY3'}]",219624,,51,spr-buttons,selection,[],
782,the one true condition,,,,,,,,,0.0-3.0-1.24,,[],,,,,220530,,52,spr-buttons,feedback,[],
782,the one true condition,5291,6_rotate,False,H,,,,kW6nqSFfGjERx6bEb,0.0-3.0-0.25,1,[],L,,,"[{'role': 'speaker', 'text': 'Hello! This is the 6th from the to upper left It looks like a person kneeling up sideways Second to the left', 'playerId': 'duzLnXCW2isWvpxwx'}]",225822,,53,spr-buttons,selection,[],
782,the one true condition,,,,,,,,,0.0-3.0-1.25,,[],,,,,226728,,54,spr-buttons,feedback,[],
782,the one true condition,3987,2_rotate,True,K,,,,2Csg2Snzrpkud2YRi,0.0-3.0-0.26,7,[],K,,,"[{'role': 'speaker', 'text': 'diamond on diamond', 'playerId': 'zyXatFB2smLy5NLCL'}]",230718,,55,spr-buttons,selection,[],
782,the one true condition,,,,,,,,,0.0-3.0-1.26,,[],,,,,231624,,56,spr-buttons,feedback,[],
782,the one true condition,7734,2_rotate,True,L,,,,pAtG6vt3AyaJypa2j,0.0-3.0-0.27,1,[],L,,,"[{'role': 'speaker', 'text': 'The head is a diamond pointing vertically up', 'playerId': '3D7MbrSZL62xJBhib'}, {'role': 'speaker', 'text': 'The body looks like someone bending at the knees, the knees pointing to the right', 'playerId': '3D7MbrSZL62xJBhib'}, {'role': 'speaker', 'text': 'Above the knees it is a triangle protruding, pointing the same direction as the knees', 'playerId': '3D7MbrSZL62xJBhib'}, {'role': 'speaker', 'text': 'The back on the left is straight', 'playerId': '3D7MbrSZL62xJBhib'}, {'role': 'speaker', 'text': 'And the legs have straight lines too', 'playerId': '3D7MbrSZL62xJBhib'}]",239359,,57,spr-buttons,selection,[],
782,the one true condition,,,,,,,,,0.0-3.0-1.27,,[],,,,,240266,,58,spr-buttons,feedback,[],
782,the one true condition,5000,6_rotate,True,K,,,,YcwXqvuyhhCeZ3GSZ,0.0-3.0-0.28,7,[],K,,,"[{'role': 'speaker', 'text': 'offering, kneeling, triangle on back', 'playerId': 't72k5QhnBy6LkmMFf'}]",245266,,59,spr-buttons,selection,[],
782,the one true condition,,,,,,,,,0.0-3.0-1.28,,[],,,,,246173,,60,spr-buttons,feedback,[],
782,the one true condition,2116,6_rotate,True,C,,,,cLaK88862bv7MHMuQ,0.0-3.0-0.29,0,[],C,,,"[{'role': 'speaker', 'text': 'Looks like one of those puppets you get a car sales shops', 'playerId': 'XgpZ3ySCe7xA9xome'}, {'role': 'speaker', 'text': 'Going out to the left', 'playerId': 'XgpZ3ySCe7xA9xome'}, {'role': 'speaker', 'text': 'diagonally', 'playerId': 'XgpZ3ySCe7xA9xome'}, {'role': 'speaker', 'text': 'One arm waving to the top-right, one arm waving to the left', 'playerId': 'XgpZ3ySCe7xA9xome'}, {'role': 'listener', 'text': 'like a crime scene outline', 'playerId': 'EfQ7ZQRZ9EtDJJDSx'}, {'role': 'listener', 'text': ""like he's falling backwards to the left"", 'playerId': 't6bNGAY6XY3kmqjAC'}]",248289,,61,spr-buttons,selection,[],
782,the one true condition,,,,,,,,,0.0-3.0-1.29,,[],,,,,249195,,62,spr-buttons,feedback,[],
782,the one true condition,5540,6_rotate,False,I,,,,qzNuN6yp4HDWzko6T,0.0-3.0-0.30,4,[],A,,,"[{'role': 'speaker', 'text': 'Karate', 'playerId': 'raCR7oL7mP22ToCrY'}]",254736,,63,spr-buttons,selection,[],
782,the one true condition,,,,,,,,,0.0-3.0-1.30,,[],,,,,255708,,64,spr-buttons,feedback,[],
782,the one true condition,5252,2_rotate,True,B,,,,CNET4E5tvYW37ZevE,0.0-3.0-0.31,9,[],B,,,"[{'role': 'speaker', 'text': 'looks like a person on their knees facing right with a triangle connected to the front of their face', 'playerId': 'oNe96ojnutpRrwiFb'}]",260962,,65,spr-buttons,selection,[],
782,the one true condition,,,,,,,,,0.0-3.0-1.31,,[],,,,,261868,,66,spr-buttons,feedback,[],
782,the one true condition,2165,2_rotate,False,H,,,,3A9hhryuHHeDQhoGy,0.0-3.0-0.32,2,[],F,,,"[{'role': 'speaker', 'text': 'sitting slightly bent to right', 'playerId': 'CWk6Fmq7GL3ktEozG'}]",264036,,67,spr-buttons,selection,[],
782,the one true condition,,,,,,,,,0.0-3.0-1.32,,[],,,,,264940,,68,spr-buttons,feedback,[],
782,the one true condition,1851,6_rotate,True,F,,,,CojwM8x8ZFDB9Y6HF,0.0-3.0-0.33,2,[],F,,,"[{'role': 'speaker', 'text': 'the picture looks like someone sitting down hunched over facing left', 'playerId': 'EzNkXZLQTRPpggasi'}, {'role': 'listener', 'text': 'With feet out in front', 'playerId': 'QZSeme5xzuLDA8Zop'}, {'role': 'listener', 'text': 'wearing a dress and ponytail', 'playerId': 'qnjhZ585k3LjuELyR'}, {'role': 'listener', 'text': 'does it look like his legs are bent slightly stretched out', 'playerId': 'xWiHkMcWveW5PDkSt'}, {'role': 'speaker', 'text': 'no with feet out to the left', 'playerId': 'EzNkXZLQTRPpggasi'}, {'role': 'speaker', 'text': 'with feet out but legs bent', 'playerId': 'EzNkXZLQTRPpggasi'}]",266792,,69,spr-buttons,selection,[],
782,the one true condition,,,,,,,,,0.0-3.0-1.33,,[],,,,,267699,,70,spr-buttons,feedback,[],
782,the one true condition,3981,6_rotate,False,D,,,,aFykNpfLr9BqKdsFL,0.0-3.0-0.34,9,[],B,,,"[{'role': 'speaker', 'text': 'looks like a praying man standing up straight', 'playerId': 'qioaDCfDaa28TFEA8'}, {'role': 'speaker', 'text': 'looking at the sky', 'playerId': 'qioaDCfDaa28TFEA8'}, {'role': 'listener', 'text': 'with both arms out', 'playerId': 'NWj66Bd2kapty9H9h'}]",271682,,71,spr-buttons,selection,[],
782,the one true condition,,,,,,,,,0.0-3.0-1.34,,[],,,,,272589,,72,spr-buttons,feedback,[],
782,the one true condition,2017,2_rotate,True,K,,,,3A9hhryuHHeDQhoGy,0.0-3.0-0.35,7,[],K,,,"[{'role': 'speaker', 'text': 'full kneeling facing right', 'playerId': 'FqnLSC6GxDNz6hS73'}]",274607,,73,spr-buttons,selection,[],
782,the one true condition,,,,,,,,,0.0-3.0-1.35,,[],,,,,275513,,74,spr-buttons,feedback,[],
782,the one true condition,1312,2_rotate,True,K,,,,pR4tb8CtSgCLLcMQY,0.0-3.0-0.36,7,[],K,,,"[{'role': 'speaker', 'text': 'kneel in prayer', 'playerId': 'zzGaoZ3hK2qpc5XR6'}]",276825,,75,spr-buttons,selection,[],
782,the one true condition,,,,,,,,,0.0-3.0-1.36,,[],,,,,277731,,76,spr-buttons,feedback,[],
782,the one true condition,10125,2_rotate,True,H,,,,Ja6HX8DgvFAspRAYm,0.0-3.0-0.37,11,[],H,,,"[{'role': 'speaker', 'text': 'bundle', 'playerId': 'Kzhdqc62M5vtN2q4e'}]",287858,,77,spr-buttons,selection,[],
782,the one true condition,,,,,,,,,0.0-3.0-1.37,,[],,,,,288764,,78,spr-buttons,feedback,[],
782,the one true condition,2134,6_rotate,True,L,,,,CojwM8x8ZFDB9Y6HF,0.0-3.0-0.38,1,[],L,,,"[{'role': 'speaker', 'text': 'Squatting, not kneeling', 'playerId': 'WJorh6puwn4WDQkk3'}]",290899,,79,spr-buttons,selection,[],
782,the one true condition,,,,,,,,,0.0-3.0-1.38,,[],,,,,291884,,80,spr-buttons,feedback,[],
782,the one true condition,11242,6_rotate,True,H,,,,cLaK88862bv7MHMuQ,0.0-3.0-0.39,11,[],H,,,"[{'role': 'speaker', 'text': 'small tail pointing right in the bottom right-hand side of the picture Slight indent on the bottom left-hand side of the picture Flat sides, but left side is longer than the right-side', 'playerId': 'XgpZ3ySCe7xA9xome'}, {'role': 'speaker', 'text': 'head slightly to the right of shoulder', 'playerId': 'XgpZ3ySCe7xA9xome'}, {'role': 'speaker', 'text': 'flat bottom', 'playerId': 'XgpZ3ySCe7xA9xome'}, {'role': 'speaker', 'text': 'pointing out in bottom-right of picture to right-hand side', 'playerId': 'XgpZ3ySCe7xA9xome'}, {'role': 'listener', 'text': 'No arms', 'playerId': 'pmjHghWjJcPehsTL4'}, {'role': 'speaker', 'text': 'no arms', 'playerId': 'XgpZ3ySCe7xA9xome'}]",303127,,81,spr-buttons,selection,[],
782,the one true condition,,,,,,,,,0.0-3.0-1.39,,[],,,,,304036,,82,spr-buttons,feedback,[],
782,the one true condition,4297,2_rotate,True,K,,,,3A9hhryuHHeDQhoGy,0.0-3.0-0.40,7,[],K,,,"[{'role': 'speaker', 'text': 'kneeling arms pointing to right', 'playerId': 'CWk6Fmq7GL3ktEozG'}]",308334,,83,spr-buttons,selection,[],
782,the one true condition,,,,,,,,,0.0-3.0-1.40,,[],,,,,309238,,84,spr-buttons,feedback,[],
782,the one true condition,14360,6_rotate,True,F,,,,4eigY5GthWZfxug8D,0.0-3.0-0.41,2,[],F,,,"[{'role': 'speaker', 'text': 'sat on the floor', 'playerId': 'W2FcmbCnXZFmMLy9v'}, {'role': 'speaker', 'text': 'knees up to the chest', 'playerId': 'W2FcmbCnXZFmMLy9v'}, {'role': 'speaker', 'text': 'diamond head', 'playerId': 'W2FcmbCnXZFmMLy9v'}, {'role': 'speaker', 'text': 'thicc body', 'playerId': 'W2FcmbCnXZFmMLy9v'}, {'role': 'listener', 'text': 'foot', 'playerId': '9b8gwadnyYhRSdEC7'}, {'role': 'listener', 'text': 'do they look sad', 'playerId': 'T8RuPGkjXkXWtsHrf'}, {'role': 'speaker', 'text': 'like a triangle on a rectangle', 'playerId': 'W2FcmbCnXZFmMLy9v'}, {'role': 'speaker', 'text': 'they look pensive', 'playerId': 'W2FcmbCnXZFmMLy9v'}, {'role': 'speaker', 'text': 'like they might be waiting', 'playerId': 'W2FcmbCnXZFmMLy9v'}, {'role': 'speaker', 'text': 'you can clearly see legs', 'playerId': 'W2FcmbCnXZFmMLy9v'}]",323600,,85,spr-buttons,selection,[],
782,the one true condition,,,,,,,,,0.0-3.0-1.41,,[],,,,,324507,,86,spr-buttons,feedback,[],
782,the one true condition,4461,2_rotate,True,G,,,,GpF4Ge9YCd7ih3DFr,0.0-3.0-0.42,5,[],G,,,"[{'role': 'speaker', 'text': 'ok another weird one', 'playerId': 'cjtnTXrerxbK7pi39'}, {'role': 'speaker', 'text': 'head on the left side of body', 'playerId': 'cjtnTXrerxbK7pi39'}, {'role': 'speaker', 'text': 'and then the left side is like a big drape', 'playerId': 'cjtnTXrerxbK7pi39'}, {'role': 'speaker', 'text': 'arms facing right', 'playerId': 'cjtnTXrerxbK7pi39'}, {'role': 'speaker', 'text': 'the left ""leg"" is a big blocky figure', 'playerId': 'cjtnTXrerxbK7pi39'}, {'role': 'speaker', 'text': 'and the right ""foot"" is just a small triangle', 'playerId': 'cjtnTXrerxbK7pi39'}]",328968,,87,spr-buttons,selection,[],
782,the one true condition,,,,,,,,,0.0-3.0-1.42,,[],,,,,329874,,88,spr-buttons,feedback,[],
782,the one true condition,1564,2_rotate,True,F,,,,pR4tb8CtSgCLLcMQY,0.0-3.0-0.43,2,[],F,,,"[{'role': 'speaker', 'text': 'a person sitting and leaning against something', 'playerId': 'jMYJS2ANLmjazynqc'}]",331440,,89,spr-buttons,selection,[],
782,the one true condition,,,,,,,,,0.0-3.0-1.43,,[],,,,,332346,,90,spr-buttons,feedback,[],
782,the one true condition,4293,6_rotate,False,G,,,,fvaDCsGFedLr7w3Ra,0.0-3.0-0.44,3,[],E,,,"[{'role': 'speaker', 'text': 'Square head on incline facing right', 'playerId': 'stM5e2BZETS3QRqbF'}, {'role': 'speaker', 'text': 'Long flat bottom Triangle on right', 'playerId': 'stM5e2BZETS3QRqbF'}, {'role': 'speaker', 'text': 'sorry head facing left', 'playerId': 'stM5e2BZETS3QRqbF'}, {'role': 'speaker', 'text': 'long rectangle bottom left and small triangle bottom right', 'playerId': 'stM5e2BZETS3QRqbF'}]",336639,,91,spr-buttons,selection,[],
782,the one true condition,,,,,,,,,0.0-3.0-1.44,,[],,,,,337545,,92,spr-buttons,feedback,[],
782,the one true condition,5680,2_rotate,True,G,,,,2Csg2Snzrpkud2YRi,0.0-3.0-0.45,5,[],G,,,"[{'role': 'speaker', 'text': 'bunch of diamond shapes', 'playerId': 'zyXatFB2smLy5NLCL'}, {'role': 'speaker', 'text': 'blob on bottom left', 'playerId': 'zyXatFB2smLy5NLCL'}]",343227,,93,spr-buttons,selection,[],
782,the one true condition,,,,,,,,,0.0-3.0-1.45,,[],,,,,344131,,94,spr-buttons,feedback,[],
782,the one true condition,10152,6_rotate,True,B,,,,6bkpQbsv6wvHWczvB,0.0-3.0-0.46,9,[],B,,,"[{'role': 'speaker', 'text': 'this one looks like an animal facing the left of the screen', 'playerId': 'pNzsWQrabqXgTRTpu'}, {'role': 'speaker', 'text': 'with a pointy nose', 'playerId': 'pNzsWQrabqXgTRTpu'}, {'role': 'speaker', 'text': ""and a square on their head that's only slightly angled"", 'playerId': 'pNzsWQrabqXgTRTpu'}, {'role': 'speaker', 'text': 'and a triangle on the back of its head rotated 90 degrees', 'playerId': 'pNzsWQrabqXgTRTpu'}, {'role': 'speaker', 'text': 'with the flat piece facing the LEFT of your screen', 'playerId': 'pNzsWQrabqXgTRTpu'}, {'role': 'listener', 'text': 'hockey player', 'playerId': '5LJfKFwCaZ5exES48'}, {'role': 'speaker', 'text': 'no looks like an animal with a pointy nose facing the left of the screen', 'playerId': 'pNzsWQrabqXgTRTpu'}, {'role': 'listener', 'text': ""He's like looking at his feet"", 'playerId': 'Chjp2rtMWxtmo8NPc'}, {'role': 'speaker', 'text': 'it almost looks shorter than the rest', 'playerId': 'pNzsWQrabqXgTRTpu'}, {'role': 'speaker', 'text': 'looking straight to the left of your screen', 'playerId': 'pNzsWQrabqXgTRTpu'}, {'role': 'speaker', 'text': 'just a little triangle for feet', 'playerId': 'pNzsWQrabqXgTRTpu'}, {'role': 'speaker', 'text': 'that are also facing the left of the screen', 'playerId': 'pNzsWQrabqXgTRTpu'}, {'role': 'speaker', 'text': 'there is a square and a triangle on the top of its head', 'playerId': 'pNzsWQrabqXgTRTpu'}]",354284,,95,spr-buttons,selection,[],
782,the one true condition,,,,,,,,,0.0-3.0-1.46,,[],,,,,355190,,96,spr-buttons,feedback,[],
782,the one true condition,1736,6_rotate,True,E,,,,CojwM8x8ZFDB9Y6HF,0.0-3.0-0.47,3,[],E,,,"[{'role': 'speaker', 'text': 'Rabbit', 'playerId': 'WJorh6puwn4WDQkk3'}]",356929,,97,spr-buttons,selection,[],
782,the one true condition,,,,,,,,,0.0-3.0-1.47,,[],,,,,357836,,98,spr-buttons,feedback,[],
782,the one true condition,9116,6_rotate,True,B,,,,cLaK88862bv7MHMuQ,0.0-3.0-0.48,9,[],B,,,"[{'role': 'speaker', 'text': 'square head with triangle barely attached', 'playerId': 'gd4Mbi8awyKfZgvka'}, {'role': 'speaker', 'text': 'flat bottom with indent on left', 'playerId': 'gd4Mbi8awyKfZgvka'}]",366953,,99,spr-buttons,selection,[],
782,the one true condition,,,,,,,,,0.0-3.0-1.48,,[],,,,,367858,,100,spr-buttons,feedback,[],
782,the one true condition,4906,6_rotate,False,I,,,,yPMhLu9xFgbC5dWLY,0.0-3.0-0.49,5,[],G,,,"[{'role': 'speaker', 'text': 'this is the other one with two distinct feet kinda things', 'playerId': '3HQ2FaXAPXevHQfsd'}, {'role': 'speaker', 'text': ""looks like they're making a yoga pose"", 'playerId': '3HQ2FaXAPXevHQfsd'}, {'role': 'speaker', 'text': 'two arms pointing left', 'playerId': '3HQ2FaXAPXevHQfsd'}, {'role': 'speaker', 'text': 'one left flat on ground, other pointed right', 'playerId': '3HQ2FaXAPXevHQfsd'}]",372765,,101,spr-buttons,selection,[],
782,the one true condition,,,,,,,,,0.0-3.0-1.49,,[],,,,,373672,,102,spr-buttons,feedback,[],
782,the one true condition,3897,2_rotate,True,J,,,,79swBZFsJnrQuHvhd,0.0-3.0-0.50,10,[],J,,,"[{'role': 'speaker', 'text': 'almost square block with right side missing and diamond on top', 'playerId': 'wQmTAXk3WXqT2b275'}]",377570,,103,spr-buttons,selection,[],
782,the one true condition,,,,,,,,,0.0-3.0-1.50,,[],,,,,378475,,104,spr-buttons,feedback,[],
782,the one true condition,6531,6_rotate,True,J,,,,4mKoevW3ykd2FDr7L,0.0-3.0-0.51,10,[],J,,,"[{'role': 'speaker', 'text': 'flat shoulders', 'playerId': 'vwpmmXPfWPvNcd9RA'}, {'role': 'speaker', 'text': 'left side completely flat,', 'playerId': 'vwpmmXPfWPvNcd9RA'}, {'role': 'listener', 'text': 'Thick body', 'playerId': 'T6rKRzHZ3WfgYdTDr'}, {'role': 'speaker', 'text': 'right side small triangle on bottom', 'playerId': 'vwpmmXPfWPvNcd9RA'}]",385008,,105,spr-buttons,selection,[],
782,the one true condition,,,,,,,,,0.0-3.0-1.51,,[],,,,,385914,,106,spr-buttons,feedback,[],
782,the one true condition,11076,2_rotate,True,D,,,,2928FF7GcrkeFiDkh,0.0-3.0-0.52,8,[],D,,,"[{'role': 'speaker', 'text': 'standing facing left, arms further out than legs', 'playerId': '5L7PZWTLhnYMGQE8b'}]",396992,,107,spr-buttons,selection,[],
782,the one true condition,,,,,,,,,0.0-3.0-1.52,,[],,,,,397897,,108,spr-buttons,feedback,[],
782,the one true condition,3766,2_rotate,True,H,,,,GpF4Ge9YCd7ih3DFr,0.0-3.0-0.53,11,[],H,,,"[{'role': 'speaker', 'text': 'diamond head in center', 'playerId': 'cjtnTXrerxbK7pi39'}, {'role': 'speaker', 'text': 'no arms', 'playerId': 'cjtnTXrerxbK7pi39'}, {'role': 'speaker', 'text': '""foot"" facing right', 'playerId': 'cjtnTXrerxbK7pi39'}]",401664,,109,spr-buttons,selection,[],
782,the one true condition,,,,,,,,,0.0-3.0-1.53,,[],,,,,402570,,110,spr-buttons,feedback,[],
782,the one true condition,7876,2_rotate,True,F,,,,YyAyuHf7S76wsbCA6,0.0-3.0-0.54,2,[],F,,,"[{'role': 'speaker', 'text': 'Person sitting to the left Long left sticking out to left Head bowed down to the left', 'playerId': '7R6jKabotwJFLSyNW'}]",410447,,111,spr-buttons,selection,[],
782,the one true condition,,,,,,,,,0.0-3.0-1.54,,[],,,,,411354,,112,spr-buttons,feedback,[],
782,the one true condition,5410,6_rotate,True,I,,,,k4otZKu35xehtF93F,0.0-3.0-0.55,6,[],I,,,"[{'role': 'speaker', 'text': 'balanced on one foot whilst leaning forward, with one foot back', 'playerId': '2uEiLua7RSNzB3CP8'}]",416765,,113,spr-buttons,selection,[],
782,the one true condition,,,,,,,,,0.0-3.0-1.55,,[],,,,,417743,,114,spr-buttons,feedback,[],
782,the one true condition,3607,6_rotate,False,G,,,,93ZvRh5AYPNeTJxjv,0.0-3.0-0.56,3,[],E,,,"[{'role': 'speaker', 'text': 'laid down', 'playerId': 'dTAmMQ6Zw5AbRzRiT'}, {'role': 'speaker', 'text': 'looks like a rabbit', 'playerId': 'dTAmMQ6Zw5AbRzRiT'}, {'role': 'speaker', 'text': 'hand behind back', 'playerId': 'dTAmMQ6Zw5AbRzRiT'}, {'role': 'listener', 'text': 'has bunny ears', 'playerId': '5a7w57CMsYw6nbJgN'}, {'role': 'listener', 'text': 'is it one we had earlier', 'playerId': 'eJA6FpeTKabMYR8rb'}, {'role': 'speaker', 'text': 'different one', 'playerId': 'dTAmMQ6Zw5AbRzRiT'}, {'role': 'speaker', 'text': 'its laid down', 'playerId': 'dTAmMQ6Zw5AbRzRiT'}, {'role': 'listener', 'text': 'two triangles on right side', 'playerId': 'EigvT8eA8dqhuxwk6'}, {'role': 'speaker', 'text': 'triangle behind it', 'playerId': 'dTAmMQ6Zw5AbRzRiT'}, {'role': 'speaker', 'text': 'reaching behind', 'playerId': 'dTAmMQ6Zw5AbRzRiT'}, {'role': 'listener', 'text': 'in which direction is behind', 'playerId': 'EigvT8eA8dqhuxwk6'}, {'role': 'speaker', 'text': 'to the right', 'playerId': 'dTAmMQ6Zw5AbRzRiT'}, {'role': 'listener', 'text': 'are you sure its laying not sitting', 'playerId': '5a7w57CMsYw6nbJgN'}, {'role': 'speaker', 'text': 'legs are layed down', 'playerId': 'dTAmMQ6Zw5AbRzRiT'}, {'role': 'speaker', 'text': 'then sitting up', 'playerId': 'dTAmMQ6Zw5AbRzRiT'}]",421351,,115,spr-buttons,selection,[],
782,the one true condition,,,,,,,,,0.0-3.0-1.56,,[],,,,,422257,,116,spr-buttons,feedback,[],
782,the one true condition,1520,2_rotate,True,C,,,,pAtG6vt3AyaJypa2j,0.0-3.0-0.57,0,[],C,,,"[{'role': 'speaker', 'text': 'Looks like a ghost flying', 'playerId': '3D7MbrSZL62xJBhib'}]",423778,,117,spr-buttons,selection,[],
782,the one true condition,,,,,,,,,0.0-3.0-1.57,,[],,,,,424684,,118,spr-buttons,feedback,[],
782,the one true condition,2270,6_rotate,True,A,,,,k4otZKu35xehtF93F,0.0-3.0-0.58,4,[],A,,,"[{'role': 'speaker', 'text': 'looking back after just taking a football kick', 'playerId': '2uEiLua7RSNzB3CP8'}, {'role': 'speaker', 'text': 'balanced on one foot', 'playerId': '2uEiLua7RSNzB3CP8'}, {'role': 'speaker', 'text': 'head is sort of out of place', 'playerId': '2uEiLua7RSNzB3CP8'}]",426955,,119,spr-buttons,selection,[],
782,the one true condition,,,,,,,,,0.0-3.0-1.58,,[],,,,,427862,,120,spr-buttons,feedback,[],
782,the one true condition,2102,6_rotate,True,C,,,,yPMhLu9xFgbC5dWLY,0.0-3.0-0.59,0,[],C,,,"[{'role': 'speaker', 'text': 'Whaaat', 'playerId': 'awLY4XCudoFs3HNWo'}]",429967,,121,spr-buttons,selection,[],
782,the one true condition,,,,,,,,,0.0-3.0-1.59,,[],,,,,430874,,122,spr-buttons,feedback,[],
782,the one true condition,,,,,,,,,0.0-4.0,"{'other': '', 'errors': '', 'length': '', 'interface': '', 'understand': ''}",2970,,,,,433853,,123,survey-text,,,
782,the one true condition,,,,,,,,,0.0-5.0,0,1981,,"<h2>Many thanks for participating!</h2><p>We are generally interested in how people form conventions, such as shared 'nicknames' for images. Here, we are studying when these shared 'nicknames' are understandable to people who were not part of the group that created the nickname.</p><h1>Press continue to be redirected to Prolific. </h1>",,,435835,,124,html-button-response,,,
802,the one true condition,,,,,[],[],[],,0.0-0.0,,,,,True,,46,False,0,preload,,,
796,the one true condition,,,,,[],[],[],,0.0-0.0,,,,,True,,12,False,0,preload,,,
796,the one true condition,,,,,,,,,0.0-1.0,0,3138,," <center><img width=""300px"" src=""assets/stanford.png"" /></center><div id=""legal""></br>By answering the following questions, you are participating in a study being performed by cognitive scientists in the Stanford Department of Psychology. If you have questions about this research, please contact us at  <a href=""mailto://languagecoglab@gmail.com.""> languagecoglab@gmail.com</a>.You must be at least 18 years old to participate. Your participation in this research is voluntary. You may decline to answer any or all of the following questions. You may decline further participation, at any time, without adverse consequences. Your anonymity is assured; the researchers who have requested your participation will not receive any personal information about you. </div></br>",,,3150,,1,html-button-response,,,
796,the one true condition,,,,,,,,,0.0-2.0,0,1743,,"<h3>Please read these instructions carefully!</h3> </br><div id=""intro""> <p>In this task, you will see a <b>transcript of a conversation</b> some previous participants had where a <b>speaker identified one of the images to some listeners</b>.</p></br><center><img width=""600px"" src=""assets/demo.png"" /></center></br><p>Your goal is to <b>read the transcript</b> and <b>figure out which image</b> is being described! </p><p>You will <b>click the image</b> you think is being described, and then you will <b>find out if you were right</b>.<p><p>You will see <b>60 trials</b>. The image choices will stay the same, but the transcripts will come from different groups of people. Some of the transcripts may be much shorter or longer than others. Some of the descriptions may be hard to understand -- just take a guess if you are not sure.</p><p>You will get a bonus of <b>5 cents</b> for each image you get right! </p><p> <b>Note:</b> These descriptions came from real people and may contain inappropriate or offensive language. If you find a description inappropriate, please let us know via Prolific message or in the exit survey, so we can filter it out in the future.</p>",,,4894,,2,html-button-response,,,
796,the one true condition,35621,6_rotate,True,E,,,,fvaDCsGFedLr7w3Ra,0.0-3.0-0.0,1,[],E,,,"[{'role': 'speaker', 'text': 'The top is two parts, almost like triangles facing slightly different directions', 'playerId': 'xpptKsHRbyPCwjxab'}, {'role': 'listener', 'text': 'Are they on top of a square', 'playerId': 'JJshSXKd5HReQYKhY'}, {'role': 'listener', 'text': 'sitting down and facing right', 'playerId': 'zz94KijdsPRR2hzey'}, {'role': 'speaker', 'text': 'Yeah, sitting down facing right', 'playerId': 'xpptKsHRbyPCwjxab'}]",40517,,3,spr-buttons,selection,[],
796,the one true condition,,,,,,,,,0.0-3.0-1.0,,[],,,,,41424,,4,spr-buttons,feedback,[],
796,the one true condition,4624,6_rotate,True,E,,,,yPMhLu9xFgbC5dWLY,0.0-3.0-0.1,1,[],E,,,"[{'role': 'speaker', 'text': 'Bunny ears', 'playerId': 'awLY4XCudoFs3HNWo'}]",46049,,5,spr-buttons,selection,[],
796,the one true condition,,,,,,,,,0.0-3.0-1.1,,[],,,,,46955,,6,spr-buttons,feedback,[],
796,the one true condition,1897,6_rotate,True,E,,,,nySo3NiJX7Kres7zm,0.0-3.0-0.2,1,[],E,,,"[{'role': 'speaker', 'text': 'Bunny man!', 'playerId': 'ugNcH6z9oWCzD3uHh'}]",48853,,7,spr-buttons,selection,[],
796,the one true condition,,,,,,,,,0.0-3.0-1.2,,[],,,,,49761,,8,spr-buttons,feedback,[],
796,the one true condition,38574,6_rotate,False,H,,,,qzNuN6yp4HDWzko6T,0.0-3.0-0.3,11,[],J,,,"[{'role': 'speaker', 'text': 'The wonky candle without arms', 'playerId': 'raCR7oL7mP22ToCrY'}, {'role': 'speaker', 'text': 'Sort of legs pointing right', 'playerId': 'raCR7oL7mP22ToCrY'}]",88336,,9,spr-buttons,selection,[],
796,the one true condition,,,,,,,,,0.0-3.0-1.3,,[],,,,,89245,,10,spr-buttons,feedback,[],
796,the one true condition,5214,6_rotate,False,G,,,,nySo3NiJX7Kres7zm,0.0-3.0-0.4,6,[],C,,,"[{'role': 'speaker', 'text': 'Sliding tackle footballer', 'playerId': 'ugNcH6z9oWCzD3uHh'}]",94460,,11,spr-buttons,selection,[],
796,the one true condition,,,,,,,,,0.0-3.0-1.4,,[],,,,,95367,,12,spr-buttons,feedback,[],
796,the one true condition,3253,2_rotate,True,E,,,,Ja6HX8DgvFAspRAYm,0.0-3.0-0.5,1,[],E,,,"[{'role': 'speaker', 'text': 'bunny', 'playerId': 'Kzhdqc62M5vtN2q4e'}]",98621,,13,spr-buttons,selection,[],
796,the one true condition,,,,,,,,,0.0-3.0-1.5,,[],,,,,99522,,14,spr-buttons,feedback,[],
796,the one true condition,14093,2_rotate,False,B,,,,GpF4Ge9YCd7ih3DFr,0.0-3.0-0.6,9,[],A,,,"[{'role': 'speaker', 'text': 'one where his head is falling off and triangle coming out of it to the right', 'playerId': '9DEoh9BWkZFYxhECs'}, {'role': 'speaker', 'text': 'facing left', 'playerId': '9DEoh9BWkZFYxhECs'}]",113615,,15,spr-buttons,selection,[],
796,the one true condition,,,,,,,,,0.0-3.0-1.6,,[],,,,,114520,,16,spr-buttons,feedback,[],
796,the one true condition,36223,2_rotate,False,B,,,,GpF4Ge9YCd7ih3DFr,0.0-3.0-0.7,2,[],F,,,"[{'role': 'speaker', 'text': 'diamond head, kneeling facing right it looks like, but could honestly go both ways', 'playerId': 'cjtnTXrerxbK7pi39'}, {'role': 'speaker', 'text': 'feet facing left', 'playerId': 'cjtnTXrerxbK7pi39'}, {'role': 'speaker', 'text': 'has a triangle on right side', 'playerId': 'cjtnTXrerxbK7pi39'}, {'role': 'speaker', 'text': 'with the corner of the triangle meeting the corner of the diamond head', 'playerId': 'cjtnTXrerxbK7pi39'}]",150744,,17,spr-buttons,selection,[],
796,the one true condition,,,,,,,,,0.0-3.0-1.7,,[],,,,,151698,,18,spr-buttons,feedback,[],
796,the one true condition,22410,6_rotate,False,L,,,,4mKoevW3ykd2FDr7L,0.0-3.0-0.8,3,[],B,,,"[{'role': 'speaker', 'text': 'knees on right', 'playerId': 'vwpmmXPfWPvNcd9RA'}, {'role': 'speaker', 'text': 'triangle arm on right', 'playerId': 'vwpmmXPfWPvNcd9RA'}, {'role': 'speaker', 'text': 'feet on left', 'playerId': 'vwpmmXPfWPvNcd9RA'}, {'role': 'listener', 'text': 'Detached', 'playerId': 'jjY6d6CreGdbCxRHY'}, {'role': 'speaker', 'text': 'triangle shoulders', 'playerId': 'vwpmmXPfWPvNcd9RA'}, {'role': 'listener', 'text': 'Left feet pointed upwards', 'playerId': 'jjY6d6CreGdbCxRHY'}, {'role': 'listener', 'text': 'Squat', 'playerId': 'jjY6d6CreGdbCxRHY'}]",174110,,19,spr-buttons,selection,[],
796,the one true condition,,,,,,,,,0.0-3.0-1.8,,[],,,,,175017,,20,spr-buttons,feedback,[],
796,the one true condition,7651,2_rotate,True,I,,,,gjooqsuf2CPN5AWxi,0.0-3.0-0.9,10,[],I,,,"[{'role': 'speaker', 'text': 'standing on one leg, leaning towards the left, with the non-standing leg point out back to the right', 'playerId': 'tuNTPZ2dpnLz8EKgu'}]",182668,,21,spr-buttons,selection,[],
796,the one true condition,,,,,,,,,0.0-3.0-1.9,,[],,,,,183575,,22,spr-buttons,feedback,[],
796,the one true condition,3568,6_rotate,True,F,,,,ezwBLtARszSJvSzM6,0.0-3.0-0.10,2,[],F,,,"[{'role': 'speaker', 'text': 'sitting person', 'playerId': 'FmTqy959xZDgn7Cmo'}, {'role': 'speaker', 'text': 'facing left', 'playerId': 'FmTqy959xZDgn7Cmo'}, {'role': 'listener', 'text': 'knees bend', 'playerId': 'WRvxri9zF6DrXgKET'}, {'role': 'speaker', 'text': 'yes knees bend', 'playerId': 'FmTqy959xZDgn7Cmo'}]",187143,,23,spr-buttons,selection,[],
796,the one true condition,,,,,,,,,0.0-3.0-1.10,,[],,,,,188048,,24,spr-buttons,feedback,[],
796,the one true condition,56095,6_rotate,False,G,,,,sitQGDNZ9pYNy2ouh,0.0-3.0-0.11,10,[],I,,,"[{'role': 'speaker', 'text': 'head facing left', 'playerId': 'bu5i364mwtpLEGf93'}, {'role': 'listener', 'text': 'kicking or no', 'playerId': 'Er77zihSKbsBZmxFf'}, {'role': 'speaker', 'text': 'arm is raised on the right (triangle)', 'playerId': 'bu5i364mwtpLEGf93'}, {'role': 'speaker', 'text': 'triangle on right leg', 'playerId': 'bu5i364mwtpLEGf93'}, {'role': 'speaker', 'text': 'on the ground', 'playerId': 'bu5i364mwtpLEGf93'}, {'role': 'listener', 'text': 'do they look like they are kicking', 'playerId': 'djL8jKozrZEFaNyBX'}, {'role': 'listener', 'text': 'top right triangle and bottom right triangle', 'playerId': 'sjTxZrxwcxHzRfvGF'}, {'role': 'listener', 'text': ""they aren't looking up"", 'playerId': 'Er77zihSKbsBZmxFf'}, {'role': 'speaker', 'text': 'they r looking straight ahead', 'playerId': 'bu5i364mwtpLEGf93'}, {'role': 'listener', 'text': ""ok, I see, it's like they're doing a situp with their arms behind them"", 'playerId': 'sjTxZrxwcxHzRfvGF'}, {'role': 'listener', 'text': 'the legs are at right angles', 'playerId': 'urTF85GQNrLSFu4jK'}]",244143,,25,spr-buttons,selection,[],
796,the one true condition,,,,,,,,,0.0-3.0-1.11,,[],,,,,245048,,26,spr-buttons,feedback,[],
796,the one true condition,4688,2_rotate,False,A,,,,YLCrDGMMiennGjggY,0.0-3.0-0.12,2,[],F,,,"[{'role': 'speaker', 'text': 'sad person facing left on one leg', 'playerId': 'sRndTvhfyBR67QCdv'}]",249736,,27,spr-buttons,selection,[],
796,the one true condition,,,,,,,,,0.0-3.0-1.12,,[],,,,,250641,,28,spr-buttons,feedback,[],
796,the one true condition,3403,6_rotate,False,D,,,,4mKoevW3ykd2FDr7L,0.0-3.0-0.13,0,[],L,,,"[{'role': 'speaker', 'text': 'looks like an offering', 'playerId': 'dWap3TF2ZN4rH5aCK'}, {'role': 'speaker', 'text': 'facing left side', 'playerId': 'dWap3TF2ZN4rH5aCK'}, {'role': 'speaker', 'text': 'straight back', 'playerId': 'dWap3TF2ZN4rH5aCK'}, {'role': 'listener', 'text': 'Square beneath one arm', 'playerId': 'jjY6d6CreGdbCxRHY'}, {'role': 'listener', 'text': 'One small triangle as a foot', 'playerId': 'jjY6d6CreGdbCxRHY'}, {'role': 'listener', 'text': 'Is the right side of the person a straight line', 'playerId': 'xmvvLCzW9MTfzSDYi'}, {'role': 'speaker', 'text': 'its straight from the body', 'playerId': 'dWap3TF2ZN4rH5aCK'}, {'role': 'speaker', 'text': 'then a triangle neck', 'playerId': 'dWap3TF2ZN4rH5aCK'}, {'role': 'speaker', 'text': 'and then straight from the body onwards', 'playerId': 'dWap3TF2ZN4rH5aCK'}, {'role': 'speaker', 'text': 'on the left, it sort of looks like a bowl and then a square underneath it', 'playerId': 'dWap3TF2ZN4rH5aCK'}]",254044,,29,spr-buttons,selection,[],
796,the one true condition,,,,,,,,,0.0-3.0-1.13,,[],,,,,254952,,30,spr-buttons,feedback,[],
796,the one true condition,4511,2_rotate,True,D,,,,hu2zy5uGrN4qJ7qqe,0.0-3.0-0.14,5,[],D,,,"[{'role': 'speaker', 'text': 'this guy is standing up straight but it looks like he is facing sideways with his arms out straight', 'playerId': 'xwCpnpj4eoCiFYeCE'}, {'role': 'speaker', 'text': ""it also looks like he's wearing a cloak"", 'playerId': 'xwCpnpj4eoCiFYeCE'}, {'role': 'listener', 'text': ""does it look like he's facing to the right or left"", 'playerId': 'p7qxLz4WrSqvxaYy3'}, {'role': 'speaker', 'text': 'he is facing the left', 'playerId': 'xwCpnpj4eoCiFYeCE'}]",259464,,31,spr-buttons,selection,[],
796,the one true condition,,,,,,,,,0.0-3.0-1.14,,[],,,,,260372,,32,spr-buttons,feedback,[],
796,the one true condition,3415,2_rotate,False,K,,,,FfK5QXXSw833vwHKX,0.0-3.0-0.15,0,[],L,,,"[{'role': 'speaker', 'text': 'looks like someone praying on their knees', 'playerId': '6iMbQKiFyJ2YwPaeo'}, {'role': 'speaker', 'text': 'facing right', 'playerId': '6iMbQKiFyJ2YwPaeo'}]",263788,,33,spr-buttons,selection,[],
796,the one true condition,,,,,,,,,0.0-3.0-1.15,,[],,,,,264695,,34,spr-buttons,feedback,[],
796,the one true condition,8046,6_rotate,True,D,,,,yPMhLu9xFgbC5dWLY,0.0-3.0-0.16,5,[],D,,,"[{'role': 'speaker', 'text': 'The speaker or lecturer', 'playerId': 'awLY4XCudoFs3HNWo'}]",272742,,35,spr-buttons,selection,[],
796,the one true condition,,,,,,,,,0.0-3.0-1.16,,[],,,,,273648,,36,spr-buttons,feedback,[],
796,the one true condition,11116,6_rotate,True,F,,,,qzNuN6yp4HDWzko6T,0.0-3.0-0.17,2,[],F,,,"[{'role': 'speaker', 'text': 'It is like a person sitting with his legs forward, both his head and legs pointing to the left', 'playerId': 'eAaeMJEcW8LDwgBSn'}, {'role': 'listener', 'text': 'looking at his knees', 'playerId': 'EoXqRaKYwsdCQXsvi'}, {'role': 'listener', 'text': 'no arms', 'playerId': 'iv6pB9Y4KpdXvuwFe'}, {'role': 'speaker', 'text': 'Yes by looking at the knees', 'playerId': 'eAaeMJEcW8LDwgBSn'}]",284765,,37,spr-buttons,selection,[],
796,the one true condition,,,,,,,,,0.0-3.0-1.17,,[],,,,,285673,,38,spr-buttons,feedback,[],
796,the one true condition,22206,2_rotate,True,C,,,,hu2zy5uGrN4qJ7qqe,0.0-3.0-0.18,6,[],C,,,"[{'role': 'speaker', 'text': '\\\\', 'playerId': 'p7qxLz4WrSqvxaYy3'}]",307881,,39,spr-buttons,selection,[],
796,the one true condition,,,,,,,,,0.0-3.0-1.18,,[],,,,,308789,,40,spr-buttons,feedback,[],
796,the one true condition,45697,6_rotate,False,B,,,,aFykNpfLr9BqKdsFL,0.0-3.0-0.19,1,[],E,,,"[{'role': 'speaker', 'text': 'the head has one triangle coming out of it', 'playerId': 'qioaDCfDaa28TFEA8'}, {'role': 'listener', 'text': 'Does it look like a mouse', 'playerId': 'PGAtCk8Ks2aJygddG'}, {'role': 'listener', 'text': 'Facing left', 'playerId': 'PGAtCk8Ks2aJygddG'}, {'role': 'listener', 'text': 'with triangle at the bottom like feet', 'playerId': 'PGAtCk8Ks2aJygddG'}]",354488,,41,spr-buttons,selection,[],
796,the one true condition,,,,,,,,,0.0-3.0-1.19,,[],,,,,355395,,42,spr-buttons,feedback,[],
796,the one true condition,13509,2_rotate,True,H,,,,CNET4E5tvYW37ZevE,0.0-3.0-0.20,4,[],H,,,"[{'role': 'speaker', 'text': 'diamond shaped head on top of an octagonal shape', 'playerId': 'oNe96ojnutpRrwiFb'}, {'role': 'speaker', 'text': 'looks like a big blob kind of', 'playerId': 'oNe96ojnutpRrwiFb'}, {'role': 'listener', 'text': 'looks like a worm', 'playerId': 'dxXnuyKwFTw4bdKd5'}, {'role': 'listener', 'text': 'the potatoey looking one', 'playerId': 'dxXnuyKwFTw4bdKd5'}]",368904,,43,spr-buttons,selection,[],
796,the one true condition,,,,,,,,,0.0-3.0-1.20,,[],,,,,369811,,44,spr-buttons,feedback,[],
796,the one true condition,26689,2_rotate,True,F,,,,YyAyuHf7S76wsbCA6,0.0-3.0-0.21,2,[],F,,,"[{'role': 'speaker', 'text': 'select the figure sitting down', 'playerId': 'fAMhn4Ein8YivGti7'}, {'role': 'speaker', 'text': 'hunched back', 'playerId': 'fAMhn4Ein8YivGti7'}, {'role': 'speaker', 'text': 'facing left', 'playerId': 'fAMhn4Ein8YivGti7'}, {'role': 'speaker', 'text': 'triangle on top', 'playerId': 'fAMhn4Ein8YivGti7'}, {'role': 'speaker', 'text': 'polygon back', 'playerId': 'fAMhn4Ein8YivGti7'}, {'role': 'speaker', 'text': 'then legs', 'playerId': 'fAMhn4Ein8YivGti7'}]",396502,,45,spr-buttons,selection,[],
796,the one true condition,,,,,,,,,0.0-3.0-1.21,,[],,,,,397411,,46,spr-buttons,feedback,[],
796,the one true condition,2918,2_rotate,False,G,,,,YLCrDGMMiennGjggY,0.0-3.0-0.22,1,[],E,,,"[{'role': 'speaker', 'text': 'not a person, two floppy ears, diamond on left of one ear', 'playerId': 'sRndTvhfyBR67QCdv'}]",400331,,47,spr-buttons,selection,[],
796,the one true condition,,,,,,,,,0.0-3.0-1.22,,[],,,,,401236,,48,spr-buttons,feedback,[],
796,the one true condition,7399,6_rotate,True,E,,,,sitQGDNZ9pYNy2ouh,0.0-3.0-0.23,1,[],E,,,"[{'role': 'speaker', 'text': 'box with wings falling down a mountain', 'playerId': 'bu5i364mwtpLEGf93'}, {'role': 'listener', 'text': 'oh its the one that looks least human right', 'playerId': 'Er77zihSKbsBZmxFf'}]",408637,,49,spr-buttons,selection,[],
796,the one true condition,,,,,,,,,0.0-3.0-1.23,,[],,,,,409546,,50,spr-buttons,feedback,[],
796,the one true condition,47640,6_rotate,False,J,,,,4mKoevW3ykd2FDr7L,0.0-3.0-0.24,7,[],G,,,"[{'role': 'speaker', 'text': 'diamond head', 'playerId': 'dWap3TF2ZN4rH5aCK'}, {'role': 'speaker', 'text': 'on one side of the body', 'playerId': 'dWap3TF2ZN4rH5aCK'}, {'role': 'speaker', 'text': 'it is a continuous line', 'playerId': 'dWap3TF2ZN4rH5aCK'}, {'role': 'speaker', 'text': 'with no bend', 'playerId': 'dWap3TF2ZN4rH5aCK'}, {'role': 'listener', 'text': 'Facing where', 'playerId': 'jjY6d6CreGdbCxRHY'}, {'role': 'speaker', 'text': ""facing right i'm guessing"", 'playerId': 'dWap3TF2ZN4rH5aCK'}, {'role': 'listener', 'text': 'right side is all jagged', 'playerId': '4P4oadGHYyNLAizPz'}, {'role': 'speaker', 'text': 'so the left side is a continuous', 'playerId': 'dWap3TF2ZN4rH5aCK'}, {'role': 'listener', 'text': 'Kneeling', 'playerId': 'xmvvLCzW9MTfzSDYi'}, {'role': 'speaker', 'text': 'not really kneeling', 'playerId': 'dWap3TF2ZN4rH5aCK'}, {'role': 'speaker', 'text': 'the right side has an arm pointing right', 'playerId': 'dWap3TF2ZN4rH5aCK'}, {'role': 'listener', 'text': 'Is the person laying on their legs', 'playerId': 'xmvvLCzW9MTfzSDYi'}, {'role': 'listener', 'text': 'is the bottom part just an almost rectangle', 'playerId': 'vwpmmXPfWPvNcd9RA'}, {'role': 'speaker', 'text': 'yes but with a point', 'playerId': 'dWap3TF2ZN4rH5aCK'}, {'role': 'speaker', 'text': 'on the bottom right', 'playerId': 'dWap3TF2ZN4rH5aCK'}, {'role': 'speaker', 'text': 'going inward', 'playerId': 'dWap3TF2ZN4rH5aCK'}]",457188,,51,spr-buttons,selection,[],
796,the one true condition,,,,,,,,,0.0-3.0-1.24,,[],,,,,458095,,52,spr-buttons,feedback,[],
796,the one true condition,3245,2_rotate,True,F,,,,79swBZFsJnrQuHvhd,0.0-3.0-0.25,2,[],F,,,"[{'role': 'speaker', 'text': 'man sitting on floor with knees bent, facing left', 'playerId': 'b6WTJQoLvhx9dhQWk'}]",461341,,53,spr-buttons,selection,[],
796,the one true condition,,,,,,,,,0.0-3.0-1.25,,[],,,,,462249,,54,spr-buttons,feedback,[],
796,the one true condition,3510,2_rotate,True,I,,,,YLCrDGMMiennGjggY,0.0-3.0-0.26,10,[],I,,,"[{'role': 'speaker', 'text': 'ballerina', 'playerId': 'sRndTvhfyBR67QCdv'}]",465759,,55,spr-buttons,selection,[],
796,the one true condition,,,,,,,,,0.0-3.0-1.26,,[],,,,,466666,,56,spr-buttons,feedback,[],
796,the one true condition,16927,2_rotate,True,G,,,,79swBZFsJnrQuHvhd,0.0-3.0-0.27,7,[],G,,,"[{'role': 'speaker', 'text': 'massive left leg, tiny right leg', 'playerId': 'b6WTJQoLvhx9dhQWk'}]",483594,,57,spr-buttons,selection,[],
796,the one true condition,,,,,,,,,0.0-3.0-1.27,,[],,,,,484499,,58,spr-buttons,feedback,[],
796,the one true condition,6591,6_rotate,True,H,,,,nySo3NiJX7Kres7zm,0.0-3.0-0.28,4,[],H,,,"[{'role': 'speaker', 'text': ""can't see arms or legs"", 'playerId': 'iMBFSMZFcXNsgL6Hp'}, {'role': 'speaker', 'text': 'looks like a bit of a block', 'playerId': 'iMBFSMZFcXNsgL6Hp'}, {'role': 'listener', 'text': 'like a swaddled baby', 'playerId': 'fPahkJv8CSQ2szZ5g'}]",491091,,59,spr-buttons,selection,[],
796,the one true condition,,,,,,,,,0.0-3.0-1.28,,[],,,,,491996,,60,spr-buttons,feedback,[],
796,the one true condition,31726,6_rotate,True,L,,,,fvaDCsGFedLr7w3Ra,0.0-3.0-0.29,0,[],L,,,"[{'role': 'speaker', 'text': 'Pointing to the right', 'playerId': 'xpptKsHRbyPCwjxab'}, {'role': 'listener', 'text': 'how is the body', 'playerId': '3pzGvNZm26GuHfxFv'}, {'role': 'listener', 'text': 'mermaid tail or not', 'playerId': 's6p55dz3WDchMCL7X'}, {'role': 'speaker', 'text': 'This one is quite simple and for some reason I have no idea how to describe it', 'playerId': 'xpptKsHRbyPCwjxab'}, {'role': 'speaker', 'text': 'Relatively vertical', 'playerId': 'xpptKsHRbyPCwjxab'}, {'role': 'listener', 'text': 'straight on the left', 'playerId': 's6p55dz3WDchMCL7X'}, {'role': 'speaker', 'text': 'Bottom half is a rectangle skewed to the right', 'playerId': 'xpptKsHRbyPCwjxab'}, {'role': 'listener', 'text': 'Knees bent', 'playerId': 'JJshSXKd5HReQYKhY'}, {'role': 'speaker', 'text': 'Knees bent, potentially a better description haha', 'playerId': 'xpptKsHRbyPCwjxab'}]",523723,,61,spr-buttons,selection,[],
796,the one true condition,,,,,,,,,0.0-3.0-1.29,,[],,,,,524631,,62,spr-buttons,feedback,[],
796,the one true condition,5637,2_rotate,True,C,,,,2928FF7GcrkeFiDkh,0.0-3.0-0.30,6,[],C,,,"[{'role': 'speaker', 'text': 'Leaning way to the left Arms up like a Y', 'playerId': 'okkXLvTuqNbsZkBZ2'}]",530268,,63,spr-buttons,selection,[],
796,the one true condition,,,,,,,,,0.0-3.0-1.30,,[],,,,,531174,,64,spr-buttons,feedback,[],
796,the one true condition,4090,2_rotate,True,D,,,,hu2zy5uGrN4qJ7qqe,0.0-3.0-0.31,5,[],D,,,"[{'role': 'speaker', 'text': 'facing left reading a book, straight legs', 'playerId': 'p7qxLz4WrSqvxaYy3'}]",535266,,65,spr-buttons,selection,[],
796,the one true condition,,,,,,,,,0.0-3.0-1.31,,[],,,,,536172,,66,spr-buttons,feedback,[],
796,the one true condition,3186,2_rotate,True,I,,,,Ja6HX8DgvFAspRAYm,0.0-3.0-0.32,10,[],I,,,"[{'role': 'speaker', 'text': 'leg back', 'playerId': 'Kzhdqc62M5vtN2q4e'}]",539358,,67,spr-buttons,selection,[],
796,the one true condition,,,,,,,,,0.0-3.0-1.32,,[],,,,,540262,,68,spr-buttons,feedback,[],
796,the one true condition,7026,6_rotate,True,E,,,,cLaK88862bv7MHMuQ,0.0-3.0-0.33,1,[],E,,,"[{'role': 'speaker', 'text': 'bunny ears windmill', 'playerId': 'gd4Mbi8awyKfZgvka'}]",547289,,69,spr-buttons,selection,[],
796,the one true condition,,,,,,,,,0.0-3.0-1.33,,[],,,,,548197,,70,spr-buttons,feedback,[],
796,the one true condition,36347,6_rotate,True,G,,,,fvaDCsGFedLr7w3Ra,0.0-3.0-0.34,7,[],G,,,"[{'role': 'speaker', 'text': ""Head is to the left of the body, there's two triangles all the way out on the right side"", 'playerId': 'xpptKsHRbyPCwjxab'}]",584547,,71,spr-buttons,selection,[],
796,the one true condition,,,,,,,,,0.0-3.0-1.34,,[],,,,,585452,,72,spr-buttons,feedback,[],
796,the one true condition,5041,6_rotate,True,C,,,,k4otZKu35xehtF93F,0.0-3.0-0.35,6,[],C,,,"[{'role': 'speaker', 'text': 'classic ghost or man with his hands up', 'playerId': '2uEiLua7RSNzB3CP8'}, {'role': 'speaker', 'text': 'slanted', 'playerId': '2uEiLua7RSNzB3CP8'}, {'role': 'speaker', 'text': 'slanted to the left', 'playerId': '2uEiLua7RSNzB3CP8'}, {'role': 'listener', 'text': 'slanted left Right arm hanging out', 'playerId': 'Sb5t7YLhHirE7JfNH'}, {'role': 'speaker', 'text': 'both arms up', 'playerId': '2uEiLua7RSNzB3CP8'}, {'role': 'speaker', 'text': 'and out', 'playerId': '2uEiLua7RSNzB3CP8'}, {'role': 'listener', 'text': 'no legs', 'playerId': 'ybQ6avjhBa46uuw8Z'}, {'role': 'speaker', 'text': 'no legs ^', 'playerId': '2uEiLua7RSNzB3CP8'}]",590493,,73,spr-buttons,selection,[],
796,the one true condition,,,,,,,,,0.0-3.0-1.35,,[],,,,,591400,,74,spr-buttons,feedback,[],
796,the one true condition,7366,6_rotate,False,A,,,,YcwXqvuyhhCeZ3GSZ,0.0-3.0-0.36,10,[],I,,,"[{'role': 'speaker', 'text': 'opposite ice skater', 'playerId': 't72k5QhnBy6LkmMFf'}]",598767,,75,spr-buttons,selection,[],
796,the one true condition,,,,,,,,,0.0-3.0-1.36,,[],,,,,599674,,76,spr-buttons,feedback,[],
796,the one true condition,16376,6_rotate,True,J,,,,4mKoevW3ykd2FDr7L,0.0-3.0-0.37,11,[],J,,,"[{'role': 'speaker', 'text': 'flat shoulders', 'playerId': 'vwpmmXPfWPvNcd9RA'}, {'role': 'speaker', 'text': 'left side completely flat,', 'playerId': 'vwpmmXPfWPvNcd9RA'}, {'role': 'listener', 'text': 'Thick body', 'playerId': 'T6rKRzHZ3WfgYdTDr'}, {'role': 'speaker', 'text': 'right side small triangle on bottom', 'playerId': 'vwpmmXPfWPvNcd9RA'}]",616053,,77,spr-buttons,selection,[],
796,the one true condition,,,,,,,,,0.0-3.0-1.37,,[],,,,,616961,,78,spr-buttons,feedback,[],
796,the one true condition,2948,2_rotate,True,I,,,,GpF4Ge9YCd7ih3DFr,0.0-3.0-0.38,10,[],I,,,"[{'role': 'speaker', 'text': 'skater!', 'playerId': '9DEoh9BWkZFYxhECs'}]",619910,,79,spr-buttons,selection,[],
796,the one true condition,,,,,,,,,0.0-3.0-1.38,,[],,,,,620820,,80,spr-buttons,feedback,[],
796,the one true condition,6625,6_rotate,True,F,,,,fvaDCsGFedLr7w3Ra,0.0-3.0-0.39,2,[],F,,,"[{'role': 'speaker', 'text': 'Sitting facing left looking sad', 'playerId': 'stM5e2BZETS3QRqbF'}]",627447,,81,spr-buttons,selection,[],
796,the one true condition,,,,,,,,,0.0-3.0-1.39,,[],,,,,628355,,82,spr-buttons,feedback,[],
796,the one true condition,5326,2_rotate,True,I,,,,gjooqsuf2CPN5AWxi,0.0-3.0-0.40,10,[],I,,,"[{'role': 'speaker', 'text': 'facing left on one leg, other leg to the right', 'playerId': 'SzYY9C53Ne7cMaPHC'}]",633682,,83,spr-buttons,selection,[],
796,the one true condition,,,,,,,,,0.0-3.0-1.40,,[],,,,,634591,,84,spr-buttons,feedback,[],
796,the one true condition,57970,2_rotate,False,G,,,,52Z92z3wj7TxhCe3X,0.0-3.0-0.41,9,[],A,,,"[{'role': 'speaker', 'text': 'Box on the left Looks a bit like a seal lying down Triangle bottom right and top right Slim neck, and lower portion of the body sort of falls to the left', 'playerId': 'YjxxewuyohjoySxSn'}]",692560,,85,spr-buttons,selection,[],
796,the one true condition,,,,,,,,,0.0-3.0-1.41,,[],,,,,693466,,86,spr-buttons,feedback,[],
796,the one true condition,3359,2_rotate,True,F,,,,2928FF7GcrkeFiDkh,0.0-3.0-0.42,2,[],F,,,"[{'role': 'speaker', 'text': 'Sitting on the ground facing left', 'playerId': 'okkXLvTuqNbsZkBZ2'}]",696827,,87,spr-buttons,selection,[],
796,the one true condition,,,,,,,,,0.0-3.0-1.42,,[],,,,,697735,,88,spr-buttons,feedback,[],
796,the one true condition,11062,2_rotate,True,I,,,,BLSAokwRgraiCPo9R,0.0-3.0-0.43,10,[],I,,,"[{'role': 'speaker', 'text': ""looks like they're leaning forward on one foot with the other in the air"", 'playerId': 'fEZ4SiL7SCcPWuGZi'}, {'role': 'speaker', 'text': 'arms to the left', 'playerId': 'fEZ4SiL7SCcPWuGZi'}, {'role': 'speaker', 'text': 'one foot to the right', 'playerId': 'fEZ4SiL7SCcPWuGZi'}]",708798,,89,spr-buttons,selection,[],
796,the one true condition,,,,,,,,,0.0-3.0-1.43,,[],,,,,709702,,90,spr-buttons,feedback,[],
796,the one true condition,3870,6_rotate,True,F,,,,qzNuN6yp4HDWzko6T,0.0-3.0-0.44,2,[],F,,,"[{'role': 'speaker', 'text': 'Man sitting down looking at knees', 'playerId': 'raCR7oL7mP22ToCrY'}, {'role': 'speaker', 'text': 'Facing left', 'playerId': 'raCR7oL7mP22ToCrY'}]",713573,,91,spr-buttons,selection,[],
796,the one true condition,,,,,,,,,0.0-3.0-1.44,,[],,,,,714477,,92,spr-buttons,feedback,[],
796,the one true condition,24306,2_rotate,True,H,,,,YLCrDGMMiennGjggY,0.0-3.0-0.45,4,[],H,,,"[{'role': 'speaker', 'text': 'this looks like a person with no limbs', 'playerId': '9KnsNqjRjt4q7CtbN'}, {'role': 'speaker', 'text': 'just center of body and diamond shaped head on the top', 'playerId': '9KnsNqjRjt4q7CtbN'}, {'role': 'listener', 'text': 'Left side of body is a straight line with top of body longer than bottom', 'playerId': 'sRndTvhfyBR67QCdv'}, {'role': 'speaker', 'text': 'the bottom is slightly faced to the right', 'playerId': '9KnsNqjRjt4q7CtbN'}, {'role': 'speaker', 'text': 'and also the bottom is a bit thicker', 'playerId': '9KnsNqjRjt4q7CtbN'}, {'role': 'listener', 'text': 'Does body have eight sides (excluding the diamond head) Kind of facing right', 'playerId': 'sRndTvhfyBR67QCdv'}]",738785,,93,spr-buttons,selection,[],
796,the one true condition,,,,,,,,,0.0-3.0-1.45,,[],,,,,739689,,94,spr-buttons,feedback,[],
796,the one true condition,13595,2_rotate,True,G,,,,Ja6HX8DgvFAspRAYm,0.0-3.0-0.46,7,[],G,,,"[{'role': 'speaker', 'text': 'kobra', 'playerId': 'Kzhdqc62M5vtN2q4e'}]",753286,,95,spr-buttons,selection,[],
796,the one true condition,,,,,,,,,0.0-3.0-1.46,,[],,,,,754194,,96,spr-buttons,feedback,[],
796,the one true condition,6174,2_rotate,True,L,,,,gjooqsuf2CPN5AWxi,0.0-3.0-0.47,0,[],L,,,"[{'role': 'speaker', 'text': 'zig zag legs', 'playerId': 'SzYY9C53Ne7cMaPHC'}]",760370,,97,spr-buttons,selection,[],
796,the one true condition,,,,,,,,,0.0-3.0-1.47,,[],,,,,761279,,98,spr-buttons,feedback,[],
796,the one true condition,10403,6_rotate,True,A,,,,yPMhLu9xFgbC5dWLY,0.0-3.0-0.48,9,[],A,,,"[{'role': 'speaker', 'text': 'zombie with one foot up on left diamond in back', 'playerId': 'awLY4XCudoFs3HNWo'}]",771684,,99,spr-buttons,selection,[],
796,the one true condition,,,,,,,,,0.0-3.0-1.48,,[],,,,,772592,,100,spr-buttons,feedback,[],
796,the one true condition,8348,2_rotate,True,L,,,,3A9hhryuHHeDQhoGy,0.0-3.0-0.49,0,[],L,,,"[{'role': 'speaker', 'text': 'kneeling body bent arm facing right', 'playerId': 'CWk6Fmq7GL3ktEozG'}]",780940,,101,spr-buttons,selection,[],
796,the one true condition,,,,,,,,,0.0-3.0-1.49,,[],,,,,781847,,102,spr-buttons,feedback,[],
796,the one true condition,57884,6_rotate,False,D,,,,QiHQvZjkmw7v9k3P4,0.0-3.0-0.50,9,[],A,,,"[{'role': 'speaker', 'text': 'a standing form', 'playerId': 'Rju3Fq3cNiFHZ94te'}, {'role': 'speaker', 'text': 'not sitting', 'playerId': 'Rju3Fq3cNiFHZ94te'}, {'role': 'speaker', 'text': 'diamond above', 'playerId': 'Rju3Fq3cNiFHZ94te'}, {'role': 'listener', 'text': 'Diamond head', 'playerId': 'jEzRik8ujt4jnrqFG'}, {'role': 'listener', 'text': ""like it's pointing at something"", 'playerId': 'nETmq9AAvZMpuTarC'}, {'role': 'listener', 'text': 'diamond and rectangular body', 'playerId': 'hJDoTe5Qoa4q2ejTt'}, {'role': 'speaker', 'text': 'looks like wearing an apron', 'playerId': 'Rju3Fq3cNiFHZ94te'}, {'role': 'listener', 'text': 'a cloak with his arms out', 'playerId': 'mj43ozqpH4CgJjpyz'}, {'role': 'listener', 'text': 'Diamond head facing downward or upward', 'playerId': 'hzsGC7CBSPkMEyDXq'}, {'role': 'speaker', 'text': 'diamond head facing upwards', 'playerId': 'Rju3Fq3cNiFHZ94te'}, {'role': 'listener', 'text': 'describe what comes after the diamond', 'playerId': 'hJDoTe5Qoa4q2ejTt'}, {'role': 'listener', 'text': 'Does it have bent legs', 'playerId': 'jEzRik8ujt4jnrqFG'}, {'role': 'listener', 'text': 'does it look like it has hands', 'playerId': 'hJDoTe5Qoa4q2ejTt'}, {'role': 'speaker', 'text': 'yeah has hands', 'playerId': 'Rju3Fq3cNiFHZ94te'}, {'role': 'listener', 'text': 'bent legs', 'playerId': 'mj43ozqpH4CgJjpyz'}, {'role': 'speaker', 'text': 'no bent legs', 'playerId': 'Rju3Fq3cNiFHZ94te'}, {'role': 'listener', 'text': 'its straight', 'playerId': 'hJDoTe5Qoa4q2ejTt'}, {'role': 'listener', 'text': 'the one with straight legs', 'playerId': 'nETmq9AAvZMpuTarC'}]",839732,,103,spr-buttons,selection,[],
796,the one true condition,,,,,,,,,0.0-3.0-1.50,,[],,,,,840640,,104,spr-buttons,feedback,[],
796,the one true condition,5822,2_rotate,False,L,,,,BLSAokwRgraiCPo9R,0.0-3.0-0.51,8,[],K,,,"[{'role': 'speaker', 'text': 'Kneeling and praying pose', 'playerId': 'fEZ4SiL7SCcPWuGZi'}]",846463,,105,spr-buttons,selection,[],
796,the one true condition,,,,,,,,,0.0-3.0-1.51,,[],,,,,847366,,106,spr-buttons,feedback,[],
796,the one true condition,34064,2_rotate,False,G,,,,CNET4E5tvYW37ZevE,0.0-3.0-0.52,3,[],B,,,"[{'role': 'speaker', 'text': 'small diamond shape connected to large obscure shape which has two small triangles within it', 'playerId': 'oNe96ojnutpRrwiFb'}, {'role': 'speaker', 'text': 'the triangles look like hands kind of', 'playerId': 'oNe96ojnutpRrwiFb'}, {'role': 'speaker', 'text': 'the person would be facing right', 'playerId': 'oNe96ojnutpRrwiFb'}]",881431,,107,spr-buttons,selection,[],
796,the one true condition,,,,,,,,,0.0-3.0-1.52,,[],,,,,882340,,108,spr-buttons,feedback,[],
796,the one true condition,18274,6_rotate,True,L,,,,57QkWqXASdPMDFRmA,0.0-3.0-0.53,0,[],L,,,"[{'role': 'speaker', 'text': 'looks like the waiter but knees bent pointed to the right', 'playerId': 'foLY9seHz9WKw4HPk'}, {'role': 'speaker', 'text': 'standing upright', 'playerId': 'foLY9seHz9WKw4HPk'}, {'role': 'listener', 'text': 'flat back', 'playerId': 'eXYo8Pa5AjP8RZ5ED'}, {'role': 'listener', 'text': 'triangle sticking out right', 'playerId': 'G2cRaG8fekyPR6Msn'}, {'role': 'listener', 'text': 'flat base and flat left side', 'playerId': 'kSyYrH7xx66AeKjLF'}, {'role': 'speaker', 'text': 'yes if it looks like knees', 'playerId': 'foLY9seHz9WKw4HPk'}, {'role': 'listener', 'text': 'diamond on top', 'playerId': 'kSyYrH7xx66AeKjLF'}, {'role': 'listener', 'text': 'half kneel', 'playerId': 'G2cRaG8fekyPR6Msn'}, {'role': 'speaker', 'text': 'wait no flat base', 'playerId': 'foLY9seHz9WKw4HPk'}, {'role': 'speaker', 'text': 'yes half knees', 'playerId': 'foLY9seHz9WKw4HPk'}, {'role': 'listener', 'text': 'not a flat base', 'playerId': 'kSyYrH7xx66AeKjLF'}, {'role': 'speaker', 'text': 'its looks like a person standing bending their knees slightly', 'playerId': 'foLY9seHz9WKw4HPk'}, {'role': 'listener', 'text': 'does he have an elbow pointing right', 'playerId': 'eXYo8Pa5AjP8RZ5ED'}, {'role': 'speaker', 'text': 'holding out their hands to the right', 'playerId': 'foLY9seHz9WKw4HPk'}]",900617,,109,spr-buttons,selection,[],
796,the one true condition,,,,,,,,,0.0-3.0-1.53,,[],,,,,901525,,110,spr-buttons,feedback,[],
796,the one true condition,2789,6_rotate,True,E,,,,YcwXqvuyhhCeZ3GSZ,0.0-3.0-0.54,1,[],E,,,"[{'role': 'speaker', 'text': 'windmill on mountain', 'playerId': 't72k5QhnBy6LkmMFf'}]",904315,,111,spr-buttons,selection,[],
796,the one true condition,,,,,,,,,0.0-3.0-1.54,,[],,,,,905222,,112,spr-buttons,feedback,[],
796,the one true condition,2744,6_rotate,True,I,,,,znSiJdhs7sWk5xhgA,0.0-3.0-0.55,10,[],I,,,"[{'role': 'speaker', 'text': 'ice skater', 'playerId': '4fTnjYS9Cge7Tv7ou'}, {'role': 'speaker', 'text': 'one foot on ground, one up', 'playerId': '4fTnjYS9Cge7Tv7ou'}]",907968,,113,spr-buttons,selection,[],
796,the one true condition,,,,,,,,,0.0-3.0-1.55,,[],,,,,908875,,114,spr-buttons,feedback,[],
796,the one true condition,4191,6_rotate,True,F,,,,CojwM8x8ZFDB9Y6HF,0.0-3.0-0.56,2,[],F,,,"[{'role': 'speaker', 'text': 'Sitting looking left knees bent', 'playerId': 'WJorh6puwn4WDQkk3'}]",913066,,115,spr-buttons,selection,[],
796,the one true condition,,,,,,,,,0.0-3.0-1.56,,[],,,,,913972,,116,spr-buttons,feedback,[],
796,the one true condition,13380,6_rotate,True,E,,,,yPMhLu9xFgbC5dWLY,0.0-3.0-0.57,1,[],E,,,"[{'role': 'speaker', 'text': ""ok, looking at it like they're people, this is the one with two things sticking out of its head"", 'playerId': '3HQ2FaXAPXevHQfsd'}, {'role': 'speaker', 'text': 'like someone sitting with their back against a wall looking down', 'playerId': '3HQ2FaXAPXevHQfsd'}, {'role': 'speaker', 'text': 'maybe wearing a bow or something', 'playerId': '3HQ2FaXAPXevHQfsd'}]",927355,,117,spr-buttons,selection,[],
796,the one true condition,,,,,,,,,0.0-3.0-1.57,,[],,,,,928260,,118,spr-buttons,feedback,[],
796,the one true condition,15309,2_rotate,False,K,,,,79swBZFsJnrQuHvhd,0.0-3.0-0.58,7,[],G,,,"[{'role': 'speaker', 'text': 'pointy up tail', 'playerId': 'b6WTJQoLvhx9dhQWk'}]",943570,,119,spr-buttons,selection,[],
796,the one true condition,,,,,,,,,0.0-3.0-1.58,,[],,,,,944478,,120,spr-buttons,feedback,[],
796,the one true condition,14499,2_rotate,False,J,,,,FfK5QXXSw833vwHKX,0.0-3.0-0.59,4,[],H,,,"[{'role': 'speaker', 'text': 'the one you selected when i said it looks like a boot earlier', 'playerId': '6iMbQKiFyJ2YwPaeo'}]",958978,,121,spr-buttons,selection,[],
796,the one true condition,,,,,,,,,0.0-3.0-1.59,,[],,,,,959885,,122,spr-buttons,feedback,[],
796,the one true condition,,,,,,,,,0.0-4.0,"{'other': 'nope.', 'errors': 'it got really big one time', 'length': 'it was fine', 'interface': ""nah it's all good"", 'understand': 'yeah'}",24160,,,,,984053,,123,survey-text,,,
796,the one true condition,,,,,,,,,0.0-5.0,0,17973,,"<h2>Many thanks for participating!</h2><p>We are generally interested in how people form conventions, such as shared 'nicknames' for images. Here, we are studying when these shared 'nicknames' are understandable to people who were not part of the group that created the nickname.</p><h1>Press continue to be redirected to Prolific. </h1>",,,1002026,,124,html-button-response,,,
800,the one true condition,,,,,,,,,0.0-0.0,0,1478,," <center><img width=""300px"" src=""assets/stanford.png"" /></center><div id=""legal""></br>By answering the following questions, you are participating in a study being performed by cognitive scientists in the Stanford Department of Psychology. If you have questions about this research, please contact us at  <a href=""mailto://languagecoglab@gmail.com.""> languagecoglab@gmail.com</a>.You must be at least 18 years old to participate. Your participation in this research is voluntary. You may decline to answer any or all of the following questions. You may decline further participation, at any time, without adverse consequences. Your anonymity is assured; the researchers who have requested your participation will not receive any personal information about you. </div></br>",,,1481,,0,html-button-response,,,
800,the one true condition,,,,,,,,,0.0-1.0,0,979,,"<h3>Please read these instructions carefully!</h3> </br><div id=""intro""> <p>In this task, you will see a <b>transcript of a conversation</b> some previous participants had where a <b>speaker identified one of the images to some listeners</b>.</p></br><center><img width=""600px"" src=""assets/demo.png"" /></center></br><p>Your goal is to <b>read the transcript</b> and <b>figure out which image</b> is being described! </p><p>You will <b>click the image</b> you think is being described, and then you will <b>find out if you were right</b>.<p><p>You will see <b>60 trials</b>. The image choices will stay the same, but the transcripts will come from different groups of people. Some of the transcripts may be much shorter or longer than others. Some of the descriptions may be hard to understand -- just take a guess if you are not sure.</p><p>You will get a bonus of <b>5 cents</b> for each image you get right! </p><p> <b>Note:</b> These descriptions came from real people and may contain inappropriate or offensive language. If you find a description inappropriate, please let us know via Prolific message or in the exit survey, so we can filter it out in the future.</p>",,,2463,,1,html-button-response,,,
804,the one true condition,,,,,[],[],[],,0.0-0.0,,,,,True,,32,False,0,preload,,,
804,the one true condition,6323,2_rotate,True,I,,,,79swBZFsJnrQuHvhd,0.0-1.0-0.0,0,[],I,,,"[{'role': 'speaker', 'text': 'man on one leg facing left with two chests sticking out, with a small triangle attached to his butt on the right', 'playerId': 'wQmTAXk3WXqT2b275'}]",6356,,1,spr-buttons,selection,[],
804,the one true condition,,,,,,,,,0.0-1.0-1.0,,[],,,,,7262,,2,spr-buttons,feedback,[],
804,the one true condition,4968,6_rotate,False,G,,,,fvaDCsGFedLr7w3Ra,0.0-1.0-0.1,3,[],F,,,"[{'role': 'speaker', 'text': 'Square head on incline facing right', 'playerId': 'stM5e2BZETS3QRqbF'}, {'role': 'speaker', 'text': 'Long flat bottom Triangle on right', 'playerId': 'stM5e2BZETS3QRqbF'}, {'role': 'speaker', 'text': 'sorry head facing left', 'playerId': 'stM5e2BZETS3QRqbF'}, {'role': 'speaker', 'text': 'long rectangle bottom left and small triangle bottom right', 'playerId': 'stM5e2BZETS3QRqbF'}]",12232,,3,spr-buttons,selection,[],
804,the one true condition,,,,,,,,,0.0-1.0-1.1,,[],,,,,13138,,4,spr-buttons,feedback,[],
804,the one true condition,2699,6_rotate,True,H,,,,4mKoevW3ykd2FDr7L,0.0-1.0-0.2,10,[],H,,,"[{'role': 'speaker', 'text': 'no limbs', 'playerId': 'vwpmmXPfWPvNcd9RA'}, {'role': 'speaker', 'text': 'triangle shoulders', 'playerId': 'vwpmmXPfWPvNcd9RA'}, {'role': 'speaker', 'text': 'bottom right is pointed', 'playerId': 'vwpmmXPfWPvNcd9RA'}, {'role': 'speaker', 'text': 'hexagonish', 'playerId': 'vwpmmXPfWPvNcd9RA'}]",15839,,5,spr-buttons,selection,[],
804,the one true condition,,,,,,,,,0.0-1.0-1.2,,[],,,,,16743,,6,spr-buttons,feedback,[],
804,the one true condition,4434,6_rotate,False,A,,,,4mKoevW3ykd2FDr7L,0.0-1.0-0.3,4,[],C,,,"[{'role': 'speaker', 'text': 'square head', 'playerId': 'dWap3TF2ZN4rH5aCK'}, {'role': 'speaker', 'text': 'legs facing left side', 'playerId': 'dWap3TF2ZN4rH5aCK'}, {'role': 'speaker', 'text': 'one leg on ground', 'playerId': 'dWap3TF2ZN4rH5aCK'}, {'role': 'speaker', 'text': 'the other in the air', 'playerId': 'dWap3TF2ZN4rH5aCK'}, {'role': 'speaker', 'text': 'about 45 degrees', 'playerId': 'dWap3TF2ZN4rH5aCK'}, {'role': 'listener', 'text': 'Arms sprawled backwards', 'playerId': 'jjY6d6CreGdbCxRHY'}, {'role': 'listener', 'text': 'Head tilted forwards and downwards', 'playerId': 'jjY6d6CreGdbCxRHY'}, {'role': 'speaker', 'text': 'head tilted backwards', 'playerId': 'dWap3TF2ZN4rH5aCK'}, {'role': 'listener', 'text': 'downwards*', 'playerId': 'jjY6d6CreGdbCxRHY'}, {'role': 'speaker', 'text': 'on the left side', 'playerId': 'dWap3TF2ZN4rH5aCK'}, {'role': 'listener', 'text': 'Two triangular arms pointing to the left', 'playerId': 'jjY6d6CreGdbCxRHY'}, {'role': 'speaker', 'text': 'not that one', 'playerId': 'dWap3TF2ZN4rH5aCK'}, {'role': 'speaker', 'text': 'the two legs are on facing the same side', 'playerId': 'dWap3TF2ZN4rH5aCK'}, {'role': 'speaker', 'text': 'on the left', 'playerId': 'dWap3TF2ZN4rH5aCK'}, {'role': 'listener', 'text': 'Ah, with one arm pointed upwards and then coming down', 'playerId': 'jjY6d6CreGdbCxRHY'}, {'role': 'listener', 'text': 'Head looking to the right', 'playerId': 'jjY6d6CreGdbCxRHY'}]",21179,,7,spr-buttons,selection,[],
804,the one true condition,,,,,,,,,0.0-1.0-1.3,,[],,,,,22084,,8,spr-buttons,feedback,[],
804,the one true condition,2035,2_rotate,True,F,,,,2Csg2Snzrpkud2YRi,0.0-1.0-0.4,3,[],F,,,"[{'role': 'speaker', 'text': 'sad guy', 'playerId': 'zyXatFB2smLy5NLCL'}]",24119,,9,spr-buttons,selection,[],
804,the one true condition,,,,,,,,,0.0-1.0-1.4,,[],,,,,25025,,10,spr-buttons,feedback,[],
804,the one true condition,2806,6_rotate,False,J,,,,sitQGDNZ9pYNy2ouh,0.0-1.0-0.5,4,[],C,,,"[{'role': 'speaker', 'text': 'looks like a water fountain', 'playerId': 'bu5i364mwtpLEGf93'}, {'role': 'listener', 'text': 'With the points going towards the left', 'playerId': 'GhH9uKef73cS6EzgR'}, {'role': 'speaker', 'text': 'top point going right', 'playerId': 'bu5i364mwtpLEGf93'}, {'role': 'listener', 'text': 'is the square on the top left', 'playerId': 'Er77zihSKbsBZmxFf'}, {'role': 'listener', 'text': 'Oh like a traditional drinking fountain in an office', 'playerId': 'GhH9uKef73cS6EzgR'}, {'role': 'speaker', 'text': 'in the middle', 'playerId': 'bu5i364mwtpLEGf93'}]",27832,,11,spr-buttons,selection,[],
804,the one true condition,,,,,,,,,0.0-1.0-1.5,,[],,,,,28738,,12,spr-buttons,feedback,[],
804,the one true condition,3887,2_rotate,True,G,,,,2928FF7GcrkeFiDkh,0.0-1.0-0.6,8,[],G,,,"[{'role': 'speaker', 'text': 'backwards C', 'playerId': '5L7PZWTLhnYMGQE8b'}]",32626,,13,spr-buttons,selection,[],
804,the one true condition,,,,,,,,,0.0-1.0-1.6,,[],,,,,33532,,14,spr-buttons,feedback,[],
804,the one true condition,1532,6_rotate,True,C,,,,znSiJdhs7sWk5xhgA,0.0-1.0-0.7,4,[],C,,,"[{'role': 'speaker', 'text': 'goalie!', 'playerId': '4fTnjYS9Cge7Tv7ou'}, {'role': 'speaker', 'text': 'goalpost cheer pose', 'playerId': '4fTnjYS9Cge7Tv7ou'}]",35065,,15,spr-buttons,selection,[],
804,the one true condition,,,,,,,,,0.0-1.0-1.7,,[],,,,,35970,,16,spr-buttons,feedback,[],
804,the one true condition,3700,2_rotate,False,B,,,,3A9hhryuHHeDQhoGy,0.0-1.0-0.8,0,[],I,,,"[{'role': 'speaker', 'text': 'one leg leaned out to left with arms spread out', 'playerId': 'FqnLSC6GxDNz6hS73'}]",39670,,17,spr-buttons,selection,[],
804,the one true condition,,,,,,,,,0.0-1.0-1.8,,[],,,,,40577,,18,spr-buttons,feedback,[],
804,the one true condition,4973,2_rotate,True,I,,,,gjooqsuf2CPN5AWxi,0.0-1.0-0.9,0,[],I,,,"[{'role': 'speaker', 'text': 'standing on one leg, leaning towards the left, with the non-standing leg point out back to the right', 'playerId': 'tuNTPZ2dpnLz8EKgu'}]",45551,,19,spr-buttons,selection,[],
804,the one true condition,,,,,,,,,0.0-1.0-1.9,,[],,,,,46458,,20,spr-buttons,feedback,[],
804,the one true condition,4148,6_rotate,True,E,,,,7i3mnwWykEA95fvyk,0.0-1.0-0.10,11,[],E,,,"[{'role': 'speaker', 'text': 'rabbit', 'playerId': '6bYzncKaESZG3XQY3'}, {'role': 'speaker', 'text': 'ears', 'playerId': '6bYzncKaESZG3XQY3'}]",50607,,21,spr-buttons,selection,[],
804,the one true condition,,,,,,,,,0.0-1.0-1.10,,[],,,,,51513,,22,spr-buttons,feedback,[],
804,the one true condition,6182,6_rotate,False,L,,,,QiHQvZjkmw7v9k3P4,0.0-1.0-0.11,1,[],D,,,"[{'role': 'speaker', 'text': 'like a chef carrying food but with slanting legs', 'playerId': 'Rju3Fq3cNiFHZ94te'}, {'role': 'listener', 'text': 'facing right', 'playerId': 'mj43ozqpH4CgJjpyz'}, {'role': 'listener', 'text': 'diamond head', 'playerId': 'jEzRik8ujt4jnrqFG'}, {'role': 'listener', 'text': 'looking to the right', 'playerId': 'hzsGC7CBSPkMEyDXq'}, {'role': 'listener', 'text': 'knees sticking out', 'playerId': 'nETmq9AAvZMpuTarC'}, {'role': 'speaker', 'text': 'diamond head', 'playerId': 'Rju3Fq3cNiFHZ94te'}, {'role': 'listener', 'text': 'bent knees', 'playerId': 'hzsGC7CBSPkMEyDXq'}]",57696,,23,spr-buttons,selection,[],
804,the one true condition,,,,,,,,,0.0-1.0-1.11,,[],,,,,58635,,24,spr-buttons,feedback,[],
804,the one true condition,7414,2_rotate,False,E,,,,of4gY8Bu37PbmkPee,0.0-1.0-0.12,5,[],A,,,"[{'role': 'speaker', 'text': 'so this starts with a base like a right angle triangle', 'playerId': 'HGiZGbRSXTDaGdsfH'}, {'role': 'speaker', 'text': 'a small square on top', 'playerId': 'HGiZGbRSXTDaGdsfH'}, {'role': 'speaker', 'text': 'then 2 small triangles on the square', 'playerId': 'HGiZGbRSXTDaGdsfH'}]",66051,,25,spr-buttons,selection,[],
804,the one true condition,,,,,,,,,0.0-1.0-1.12,,[],,,,,66957,,26,spr-buttons,feedback,[],
804,the one true condition,4692,6_rotate,True,L,,,,CojwM8x8ZFDB9Y6HF,0.0-1.0-0.13,9,[],L,,,"[{'role': 'speaker', 'text': 'Squatting, not kneeling', 'playerId': 'WJorh6puwn4WDQkk3'}]",71649,,27,spr-buttons,selection,[],
804,the one true condition,,,,,,,,,0.0-1.0-1.13,,[],,,,,72564,,28,spr-buttons,feedback,[],
804,the one true condition,5753,6_rotate,True,D,,,,fvaDCsGFedLr7w3Ra,0.0-1.0-0.14,1,[],D,,,"[{'role': 'speaker', 'text': 'Standing up vertically, the entire right side is straight', 'playerId': 'xpptKsHRbyPCwjxab'}, {'role': 'speaker', 'text': 'pointing to the left', 'playerId': 'xpptKsHRbyPCwjxab'}]",78318,,29,spr-buttons,selection,[],
804,the one true condition,,,,,,,,,0.0-1.0-1.14,,[],,,,,79223,,30,spr-buttons,feedback,[],
804,the one true condition,3900,2_rotate,True,E,,,,3A9hhryuHHeDQhoGy,0.0-1.0-0.15,11,[],E,,,"[{'role': 'speaker', 'text': 'seating facing right and has antlers', 'playerId': 'FqnLSC6GxDNz6hS73'}]",83126,,31,spr-buttons,selection,[],
804,the one true condition,,,,,,,,,0.0-1.0-1.15,,[],,,,,84030,,32,spr-buttons,feedback,[],
804,the one true condition,2097,6_rotate,True,I,,,,57QkWqXASdPMDFRmA,0.0-1.0-0.16,0,[],I,,,"[{'role': 'speaker', 'text': 'ice skater', 'playerId': 'G2cRaG8fekyPR6Msn'}, {'role': 'speaker', 'text': 'facing left', 'playerId': 'G2cRaG8fekyPR6Msn'}]",86128,,33,spr-buttons,selection,[],
804,the one true condition,,,,,,,,,0.0-1.0-1.16,,[],,,,,87034,,34,spr-buttons,feedback,[],
804,the one true condition,1724,6_rotate,True,E,,,,aFykNpfLr9BqKdsFL,0.0-1.0-0.17,11,[],E,,,"[{'role': 'speaker', 'text': 'looks like a bunny', 'playerId': 'qioaDCfDaa28TFEA8'}]",88759,,35,spr-buttons,selection,[],
804,the one true condition,,,,,,,,,0.0-1.0-1.17,,[],,,,,89664,,36,spr-buttons,feedback,[],
804,the one true condition,2648,6_rotate,True,A,,,,57QkWqXASdPMDFRmA,0.0-1.0-0.18,5,[],A,,,"[{'role': 'speaker', 'text': 'hopping on one foot', 'playerId': 'foLY9seHz9WKw4HPk'}, {'role': 'speaker', 'text': 'left leg raised', 'playerId': 'foLY9seHz9WKw4HPk'}, {'role': 'speaker', 'text': '2 heads', 'playerId': 'foLY9seHz9WKw4HPk'}, {'role': 'listener', 'text': 'Head back facing right', 'playerId': '4G9hab5MLzr3hzwbK'}, {'role': 'listener', 'text': 'diamond head to right', 'playerId': 'PhukZyyqKFDxhsjYv'}, {'role': 'listener', 'text': 'upright', 'playerId': 'G2cRaG8fekyPR6Msn'}, {'role': 'listener', 'text': 'triangle facing down like a pointed nose', 'playerId': 'eXYo8Pa5AjP8RZ5ED'}, {'role': 'speaker', 'text': 'upright', 'playerId': 'foLY9seHz9WKw4HPk'}, {'role': 'speaker', 'text': 'yes triangle pointed nose', 'playerId': 'foLY9seHz9WKw4HPk'}, {'role': 'listener', 'text': 'flat back on the right', 'playerId': 'kSyYrH7xx66AeKjLF'}, {'role': 'speaker', 'text': 'right head is a diamond left is pointed down triangle', 'playerId': 'foLY9seHz9WKw4HPk'}]",92312,,37,spr-buttons,selection,[],
804,the one true condition,,,,,,,,,0.0-1.0-1.18,,[],,,,,93217,,38,spr-buttons,feedback,[],
804,the one true condition,11385,2_rotate,False,J,,,,GpF4Ge9YCd7ih3DFr,0.0-1.0-0.19,9,[],L,,,"[{'role': 'speaker', 'text': 'looking to the right, blocky, also looking up', 'playerId': 'cjtnTXrerxbK7pi39'}, {'role': 'speaker', 'text': ""doesn't look like he's praying"", 'playerId': 'cjtnTXrerxbK7pi39'}, {'role': 'speaker', 'text': 'the left side is a completely straight line', 'playerId': 'cjtnTXrerxbK7pi39'}, {'role': 'listener', 'text': 'has he got a triangle coming out of his chest pointing to the right', 'playerId': '9DEoh9BWkZFYxhECs'}, {'role': 'speaker', 'text': 'well coming out of his shoulder', 'playerId': 'cjtnTXrerxbK7pi39'}, {'role': 'speaker', 'text': 'left side is a completely straight line', 'playerId': 'cjtnTXrerxbK7pi39'}, {'role': 'listener', 'text': ""and is his head in the middle of his 'body'"", 'playerId': '9DEoh9BWkZFYxhECs'}]",104604,,39,spr-buttons,selection,[],
804,the one true condition,,,,,,,,,0.0-1.0-1.19,,[],,,,,105511,,40,spr-buttons,feedback,[],
804,the one true condition,1950,6_rotate,True,I,,,,CojwM8x8ZFDB9Y6HF,0.0-1.0-0.20,0,[],I,,,"[{'role': 'speaker', 'text': 'Ice skater', 'playerId': 'WJorh6puwn4WDQkk3'}]",107462,,41,spr-buttons,selection,[],
804,the one true condition,,,,,,,,,0.0-1.0-1.20,,[],,,,,108367,,42,spr-buttons,feedback,[],
804,the one true condition,1941,6_rotate,True,E,,,,nySo3NiJX7Kres7zm,0.0-1.0-0.21,11,[],E,,,"[{'role': 'speaker', 'text': 'Bunny man!', 'playerId': 'ugNcH6z9oWCzD3uHh'}]",110310,,43,spr-buttons,selection,[],
804,the one true condition,,,,,,,,,0.0-1.0-1.21,,[],,,,,111215,,44,spr-buttons,feedback,[],
804,the one true condition,4574,6_rotate,True,J,,,,YcwXqvuyhhCeZ3GSZ,0.0-1.0-0.22,7,[],J,,,"[{'role': 'speaker', 'text': 'biggest torso', 'playerId': 't72k5QhnBy6LkmMFf'}]",115789,,45,spr-buttons,selection,[],
804,the one true condition,,,,,,,,,0.0-1.0-1.22,,[],,,,,116694,,46,spr-buttons,feedback,[],
804,the one true condition,4990,2_rotate,False,F,,,,hu2zy5uGrN4qJ7qqe,0.0-1.0-0.23,9,[],L,,,"[{'role': 'speaker', 'text': 'this guy is sitting on the ground with his knees bent on the left side', 'playerId': 'xwCpnpj4eoCiFYeCE'}, {'role': 'speaker', 'text': 'his head is tilted in towards his knees', 'playerId': 'xwCpnpj4eoCiFYeCE'}]",121684,,47,spr-buttons,selection,[],
804,the one true condition,,,,,,,,,0.0-1.0-1.23,,[],,,,,122591,,48,spr-buttons,feedback,[],
804,the one true condition,2099,2_rotate,True,C,,,,79swBZFsJnrQuHvhd,0.0-1.0-0.24,4,[],C,,,"[{'role': 'speaker', 'text': 'swaying to the left', 'playerId': 'b6WTJQoLvhx9dhQWk'}]",124693,,49,spr-buttons,selection,[],
804,the one true condition,,,,,,,,,0.0-1.0-1.24,,[],,,,,125600,,50,spr-buttons,feedback,[],
804,the one true condition,903,6_rotate,False,L,,,,qzNuN6yp4HDWzko6T,0.0-1.0-0.25,4,[],C,,,"[{'role': 'speaker', 'text': 'Slightly bent person holding something', 'playerId': 'eAaeMJEcW8LDwgBSn'}, {'role': 'listener', 'text': ""as though they're bent at the knees"", 'playerId': 'EoXqRaKYwsdCQXsvi'}, {'role': 'speaker', 'text': 'His knees and arms point to the right', 'playerId': 'eAaeMJEcW8LDwgBSn'}, {'role': 'listener', 'text': 'is it facing right or left', 'playerId': 'iv6pB9Y4KpdXvuwFe'}, {'role': 'listener', 'text': 'Leg up', 'playerId': 'YJbokLWKpcBbGTD8z'}]",126503,,51,spr-buttons,selection,[],
804,the one true condition,,,,,,,,,0.0-1.0-1.25,,[],,,,,127410,,52,spr-buttons,feedback,[],
804,the one true condition,1661,2_rotate,False,F,,,,hu2zy5uGrN4qJ7qqe,0.0-1.0-0.26,4,[],C,,,"[{'role': 'speaker', 'text': 'sitting down facing left, head pointing down', 'playerId': 'p7qxLz4WrSqvxaYy3'}]",129071,,53,spr-buttons,selection,[],
804,the one true condition,,,,,,,,,0.0-1.0-1.26,,[],,,,,129975,,54,spr-buttons,feedback,[],
804,the one true condition,5272,2_rotate,True,J,,,,52Z92z3wj7TxhCe3X,0.0-1.0-0.27,7,[],J,,,"[{'role': 'speaker', 'text': 'Quite a box shaped body - pointy corner in the top right Box Head is straight in the middle, sort of looks like a diamond shape Cut out corner in the bottom right', 'playerId': 'YjxxewuyohjoySxSn'}]",135249,,55,spr-buttons,selection,[],
804,the one true condition,,,,,,,,,0.0-1.0-1.27,,[],,,,,136156,,56,spr-buttons,feedback,[],
804,the one true condition,2260,6_rotate,True,B,,,,cLaK88862bv7MHMuQ,0.0-1.0-0.28,6,[],B,,,"[{'role': 'speaker', 'text': 'Looks like someone kneeling on the floor', 'playerId': 'XgpZ3ySCe7xA9xome'}, {'role': 'speaker', 'text': 'triangle arm on right not attached to body', 'playerId': 'XgpZ3ySCe7xA9xome'}, {'role': 'speaker', 'text': 'Other arm attached on left-hand side', 'playerId': 'XgpZ3ySCe7xA9xome'}, {'role': 'speaker', 'text': 'Small triangle foot on left-hand side', 'playerId': 'XgpZ3ySCe7xA9xome'}, {'role': 'speaker', 'text': 'Flat bottom, with indent on the left-hand side', 'playerId': 'XgpZ3ySCe7xA9xome'}, {'role': 'speaker', 'text': 'Head in-between the two arms', 'playerId': 'XgpZ3ySCe7xA9xome'}]",138416,,57,spr-buttons,selection,[],
804,the one true condition,,,,,,,,,0.0-1.0-1.28,,[],,,,,139322,,58,spr-buttons,feedback,[],
804,the one true condition,3995,2_rotate,True,F,,,,GpF4Ge9YCd7ih3DFr,0.0-1.0-0.29,3,[],F,,,"[{'role': 'speaker', 'text': 'sitting down, facing left, sitting on arms, legs drawn up to chest', 'playerId': '9DEoh9BWkZFYxhECs'}]",143318,,59,spr-buttons,selection,[],
804,the one true condition,,,,,,,,,0.0-1.0-1.29,,[],,,,,144224,,60,spr-buttons,feedback,[],
804,the one true condition,2039,2_rotate,True,E,,,,YLCrDGMMiennGjggY,0.0-1.0-0.30,11,[],E,,,"[{'role': 'speaker', 'text': 'this one kinda looks like a rabbit', 'playerId': '9KnsNqjRjt4q7CtbN'}, {'role': 'speaker', 'text': 'sitting on the ground', 'playerId': '9KnsNqjRjt4q7CtbN'}, {'role': 'speaker', 'text': 'a long bottom and a head with ears standing out', 'playerId': '9KnsNqjRjt4q7CtbN'}, {'role': 'speaker', 'text': 'it has a triangular body', 'playerId': '9KnsNqjRjt4q7CtbN'}]",146264,,61,spr-buttons,selection,[],
804,the one true condition,,,,,,,,,0.0-1.0-1.30,,[],,,,,147171,,62,spr-buttons,feedback,[],
804,the one true condition,2140,2_rotate,True,A,,,,Ja6HX8DgvFAspRAYm,0.0-1.0-0.31,5,[],A,,,"[{'role': 'speaker', 'text': 'zombie', 'playerId': 'Kzhdqc62M5vtN2q4e'}]",149312,,63,spr-buttons,selection,[],
804,the one true condition,,,,,,,,,0.0-1.0-1.31,,[],,,,,150217,,64,spr-buttons,feedback,[],
804,the one true condition,5183,6_rotate,True,D,,,,7i3mnwWykEA95fvyk,0.0-1.0-0.32,1,[],D,,,"[{'role': 'speaker', 'text': 'holding object out to left', 'playerId': 'zKzojrwHz2R6wEi3M'}, {'role': 'listener', 'text': 'like a basket', 'playerId': '6bYzncKaESZG3XQY3'}, {'role': 'speaker', 'text': 'left foot pointing out to left', 'playerId': 'zKzojrwHz2R6wEi3M'}, {'role': 'speaker', 'text': 'basket yes', 'playerId': 'zKzojrwHz2R6wEi3M'}, {'role': 'listener', 'text': 'triangle on the back', 'playerId': 'xMcZMZoajc3znxvFH'}, {'role': 'listener', 'text': 'left foot in the air', 'playerId': 'HPXeHqtHCBw7Cg7WX'}, {'role': 'speaker', 'text': 'no feet in the air', 'playerId': 'zKzojrwHz2R6wEi3M'}, {'role': 'speaker', 'text': 'person just standing', 'playerId': 'zKzojrwHz2R6wEi3M'}, {'role': 'speaker', 'text': 'bottom corner right angle', 'playerId': 'zKzojrwHz2R6wEi3M'}, {'role': 'speaker', 'text': 'right corner', 'playerId': 'zKzojrwHz2R6wEi3M'}]",155402,,65,spr-buttons,selection,[],
804,the one true condition,,,,,,,,,0.0-1.0-1.32,,[],,,,,156307,,66,spr-buttons,feedback,[],
804,the one true condition,2094,2_rotate,False,K,,,,3A9hhryuHHeDQhoGy,0.0-1.0-0.33,9,[],L,,,"[{'role': 'speaker', 'text': 'full kneeling facing right', 'playerId': 'FqnLSC6GxDNz6hS73'}]",158402,,67,spr-buttons,selection,[],
804,the one true condition,,,,,,,,,0.0-1.0-1.33,,[],,,,,159376,,68,spr-buttons,feedback,[],
804,the one true condition,1452,6_rotate,True,E,,,,4eigY5GthWZfxug8D,0.0-1.0-0.34,11,[],E,,,"[{'role': 'speaker', 'text': 'bunny ears', 'playerId': 'W2FcmbCnXZFmMLy9v'}, {'role': 'speaker', 'text': 'sat on the floor', 'playerId': 'W2FcmbCnXZFmMLy9v'}, {'role': 'listener', 'text': 'any arm', 'playerId': '9b8gwadnyYhRSdEC7'}, {'role': 'speaker', 'text': 'head slumped down', 'playerId': 'W2FcmbCnXZFmMLy9v'}, {'role': 'speaker', 'text': 'no arms', 'playerId': 'W2FcmbCnXZFmMLy9v'}]",160829,,69,spr-buttons,selection,[],
804,the one true condition,,,,,,,,,0.0-1.0-1.34,,[],,,,,161735,,70,spr-buttons,feedback,[],
804,the one true condition,3155,6_rotate,True,L,,,,yPMhLu9xFgbC5dWLY,0.0-1.0-0.35,9,[],L,,,"[{'role': 'speaker', 'text': 'knees bent, facing right looks like bowler', 'playerId': 'awLY4XCudoFs3HNWo'}, {'role': 'speaker', 'text': 'still standing', 'playerId': 'awLY4XCudoFs3HNWo'}, {'role': 'speaker', 'text': 'standing', 'playerId': 'awLY4XCudoFs3HNWo'}]",164892,,71,spr-buttons,selection,[],
804,the one true condition,,,,,,,,,0.0-1.0-1.35,,[],,,,,165797,,72,spr-buttons,feedback,[],
804,the one true condition,3658,6_rotate,True,D,,,,k4otZKu35xehtF93F,0.0-1.0-0.36,1,[],D,,,"[{'role': 'speaker', 'text': 'standing up and reading', 'playerId': '2uEiLua7RSNzB3CP8'}, {'role': 'listener', 'text': 'arms to the left', 'playerId': 'ybQ6avjhBa46uuw8Z'}, {'role': 'speaker', 'text': 'arms holding the book', 'playerId': '2uEiLua7RSNzB3CP8'}, {'role': 'listener', 'text': ""Kind of like he's wearing a robe, that one"", 'playerId': 'Sb5t7YLhHirE7JfNH'}]",169457,,73,spr-buttons,selection,[],
804,the one true condition,,,,,,,,,0.0-1.0-1.36,,[],,,,,170361,,74,spr-buttons,feedback,[],
804,the one true condition,2123,2_rotate,True,E,,,,pR4tb8CtSgCLLcMQY,0.0-1.0-0.37,11,[],E,,,"[{'role': 'speaker', 'text': 'bunny ears square head triangle body', 'playerId': 'jMYJS2ANLmjazynqc'}]",172484,,75,spr-buttons,selection,[],
804,the one true condition,,,,,,,,,0.0-1.0-1.37,,[],,,,,173390,,76,spr-buttons,feedback,[],
804,the one true condition,3051,6_rotate,True,D,,,,k4otZKu35xehtF93F,0.0-1.0-0.38,1,[],D,,,"[{'role': 'speaker', 'text': 'speaker facing left, like a professor', 'playerId': 'ybQ6avjhBa46uuw8Z'}, {'role': 'listener', 'text': 'zig zag legs', 'playerId': 'Y5SY8s43n7GAw5JuK'}, {'role': 'listener', 'text': ""oh no that's right!"", 'playerId': 'Y5SY8s43n7GAw5JuK'}, {'role': 'speaker', 'text': 'flat bottom, flat right', 'playerId': 'ybQ6avjhBa46uuw8Z'}, {'role': 'listener', 'text': 'Graduation podium', 'playerId': 'Sb5t7YLhHirE7JfNH'}]",176442,,77,spr-buttons,selection,[],
804,the one true condition,,,,,,,,,0.0-1.0-1.38,,[],,,,,177349,,78,spr-buttons,feedback,[],
804,the one true condition,6537,2_rotate,True,K,,,,pAtG6vt3AyaJypa2j,0.0-1.0-0.39,2,[],K,,,"[{'role': 'speaker', 'text': 'Looks like someone on their knees kneeling down', 'playerId': '3D7MbrSZL62xJBhib'}, {'role': 'speaker', 'text': 'Their knees pointing to the right', 'playerId': '3D7MbrSZL62xJBhib'}, {'role': 'speaker', 'text': 'Behind them, to the left, there is a tail triangle tip pointing up vertically', 'playerId': '3D7MbrSZL62xJBhib'}, {'role': 'speaker', 'text': 'Their head is a diamond pointing straight up', 'playerId': '3D7MbrSZL62xJBhib'}]",183887,,79,spr-buttons,selection,[],
804,the one true condition,,,,,,,,,0.0-1.0-1.39,,[],,,,,184791,,80,spr-buttons,feedback,[],
804,the one true condition,2912,6_rotate,True,B,,,,aFykNpfLr9BqKdsFL,0.0-1.0-0.40,6,[],B,,,"[{'role': 'speaker', 'text': 'the head has one triangle coming out of it', 'playerId': 'qioaDCfDaa28TFEA8'}, {'role': 'listener', 'text': 'Does it look like a mouse', 'playerId': 'PGAtCk8Ks2aJygddG'}, {'role': 'listener', 'text': 'Facing left', 'playerId': 'PGAtCk8Ks2aJygddG'}, {'role': 'listener', 'text': 'with triangle at the bottom like feet', 'playerId': 'PGAtCk8Ks2aJygddG'}]",187704,,81,spr-buttons,selection,[],
804,the one true condition,,,,,,,,,0.0-1.0-1.40,,[],,,,,188610,,82,spr-buttons,feedback,[],
804,the one true condition,2246,6_rotate,False,G,,,,6bkpQbsv6wvHWczvB,0.0-1.0-0.41,4,[],C,,,"[{'role': 'speaker', 'text': 'this one looks like a guy leaning backwards resting on his arms face the left of your screen, and they have a rotated square and a triangle on their head', 'playerId': 'pNzsWQrabqXgTRTpu'}, {'role': 'speaker', 'text': 'their ""arm"" is an upside down triangle', 'playerId': 'pNzsWQrabqXgTRTpu'}, {'role': 'listener', 'text': 'like a guy is falling backward', 'playerId': '5LJfKFwCaZ5exES48'}, {'role': 'speaker', 'text': 'no like they are leaning backwards', 'playerId': 'pNzsWQrabqXgTRTpu'}, {'role': 'speaker', 'text': 'half leaning half laying', 'playerId': 'pNzsWQrabqXgTRTpu'}, {'role': 'speaker', 'text': 'there is an upside down triangle for their arm', 'playerId': 'pNzsWQrabqXgTRTpu'}, {'role': 'speaker', 'text': 'and they are facing the left of your screen', 'playerId': 'pNzsWQrabqXgTRTpu'}, {'role': 'speaker', 'text': 'there is a rotated square on the left side of their head', 'playerId': 'pNzsWQrabqXgTRTpu'}, {'role': 'speaker', 'text': 'and a triangle rotated 45 degrees on the left side of their head', 'playerId': 'pNzsWQrabqXgTRTpu'}]",190858,,83,spr-buttons,selection,[],
804,the one true condition,,,,,,,,,0.0-1.0-1.41,,[],,,,,191763,,84,spr-buttons,feedback,[],
804,the one true condition,1154,2_rotate,True,C,,,,FfK5QXXSw833vwHKX,0.0-1.0-0.42,4,[],C,,,"[{'role': 'speaker', 'text': 'whyyy', 'playerId': 'psDWD9d3xQGdFFP7Q'}]",192919,,85,spr-buttons,selection,[],
804,the one true condition,,,,,,,,,0.0-1.0-1.42,,[],,,,,193825,,86,spr-buttons,feedback,[],
804,the one true condition,5352,2_rotate,False,J,,,,2Csg2Snzrpkud2YRi,0.0-1.0-0.43,1,[],D,,,"[{'role': 'speaker', 'text': 'diamond on the top in the center', 'playerId': 'DugA5xyi4CvXJWvaC'}, {'role': 'speaker', 'text': 'on top of a long flat edge (the diamond)', 'playerId': 'DugA5xyi4CvXJWvaC'}]",199178,,87,spr-buttons,selection,[],
804,the one true condition,,,,,,,,,0.0-1.0-1.43,,[],,,,,200084,,88,spr-buttons,feedback,[],
804,the one true condition,6935,6_rotate,False,G,,,,znSiJdhs7sWk5xhgA,0.0-1.0-0.44,3,[],F,,,"[{'role': 'listener', 'text': 'no, next one', 'playerId': 'WAszJpnabdgdgpaoe'}, {'role': 'speaker', 'text': 'not really a body shape Looks like a somebody sitting down maybe Head just attached', 'playerId': 'HaYEtB56fe33ZSXjw'}, {'role': 'speaker', 'text': 'Looking to the left', 'playerId': 'HaYEtB56fe33ZSXjw'}, {'role': 'listener', 'text': 'sitting upright with head in the centre>', 'playerId': 'WAszJpnabdgdgpaoe'}, {'role': 'listener', 'text': 'do they have feet to the left or right', 'playerId': 'MJxZ4a3KWksjWMEYq'}, {'role': 'speaker', 'text': 'But there is a picture of somebody sitting down - ignore that', 'playerId': 'HaYEtB56fe33ZSXjw'}, {'role': 'listener', 'text': 'arms', 'playerId': 'y9i8sGWvbi53Zby2v'}, {'role': 'speaker', 'text': 'like a tail to the right', 'playerId': 'HaYEtB56fe33ZSXjw'}, {'role': 'speaker', 'text': 'arms behind the head', 'playerId': 'HaYEtB56fe33ZSXjw'}, {'role': 'speaker', 'text': 'just a weird body shape', 'playerId': 'HaYEtB56fe33ZSXjw'}, {'role': 'listener', 'text': 'is the body morre square', 'playerId': 'MJxZ4a3KWksjWMEYq'}, {'role': 'speaker', 'text': 'like the shape of italy', 'playerId': 'HaYEtB56fe33ZSXjw'}, {'role': 'listener', 'text': 'does it look like the cocoon pokemon', 'playerId': 'MJxZ4a3KWksjWMEYq'}]",207021,,89,spr-buttons,selection,[],
804,the one true condition,,,,,,,,,0.0-1.0-1.44,,[],,,,,207926,,90,spr-buttons,feedback,[],
804,the one true condition,2259,2_rotate,True,L,,,,gjooqsuf2CPN5AWxi,0.0-1.0-0.45,9,[],L,,,"[{'role': 'speaker', 'text': 'zig zag legs', 'playerId': 'SzYY9C53Ne7cMaPHC'}]",210186,,91,spr-buttons,selection,[],
804,the one true condition,,,,,,,,,0.0-1.0-1.45,,[],,,,,211092,,92,spr-buttons,feedback,[],
804,the one true condition,3367,2_rotate,False,K,,,,79swBZFsJnrQuHvhd,0.0-1.0-0.46,7,[],J,,,"[{'role': 'speaker', 'text': 'right angle at bottom left, and wedge shape missing on right', 'playerId': 'wQmTAXk3WXqT2b275'}]",214459,,93,spr-buttons,selection,[],
804,the one true condition,,,,,,,,,0.0-1.0-1.46,,[],,,,,215364,,94,spr-buttons,feedback,[],
804,the one true condition,2937,2_rotate,False,G,,,,2Csg2Snzrpkud2YRi,0.0-1.0-0.47,10,[],H,,,"[{'role': 'speaker', 'text': 'this does not look like a person', 'playerId': 'DugA5xyi4CvXJWvaC'}, {'role': 'speaker', 'text': 'there is a diamond on the top left corner and then interesting shaped triangles (2) on the right side of the picture', 'playerId': 'DugA5xyi4CvXJWvaC'}, {'role': 'speaker', 'text': 'and a big blob sitting on the bottom left', 'playerId': 'DugA5xyi4CvXJWvaC'}, {'role': 'speaker', 'text': 'almost like a person sitting down with their feet to the left', 'playerId': 'DugA5xyi4CvXJWvaC'}]",218303,,95,spr-buttons,selection,[],
804,the one true condition,,,,,,,,,0.0-1.0-1.47,,[],,,,,219229,,96,spr-buttons,feedback,[],
804,the one true condition,3431,2_rotate,False,H,,,,52Z92z3wj7TxhCe3X,0.0-1.0-0.48,6,[],B,,,"[{'role': 'speaker', 'text': 'Quite a niche one - diamond head, person not really looking in a specific direction Shoulders pointing down in a triangular manner and meeting the straight arms Pointy corner in the bottom right', 'playerId': 'YjxxewuyohjoySxSn'}, {'role': 'speaker', 'text': 'Looks 2D - no direction', 'playerId': 'YjxxewuyohjoySxSn'}]",222662,,97,spr-buttons,selection,[],
804,the one true condition,,,,,,,,,0.0-1.0-1.48,,[],,,,,223568,,98,spr-buttons,feedback,[],
804,the one true condition,2908,2_rotate,False,K,,,,FfK5QXXSw833vwHKX,0.0-1.0-0.49,6,[],B,,,"[{'role': 'speaker', 'text': 'small hood', 'playerId': 'psDWD9d3xQGdFFP7Q'}]",226478,,99,spr-buttons,selection,[],
804,the one true condition,,,,,,,,,0.0-1.0-1.49,,[],,,,,227383,,100,spr-buttons,feedback,[],
