workerid,proliferate.condition,button_rt,condition,correct,correct_tangram,failed_audio,failed_images,failed_video,gameId,internal_node_id,orig_repNum,orig_trialNum,response,rt,selected,stimulus,success,text,time_elapsed,timeout,trial_index,trial_type,type,word,error
3057,foobar,,,,,[],[],[],,0.0-0.0,,,,,,,True,,283,False,0,preload,,,
3057,foobar,,,,,,,,,0.0-1.0,,,0,17871,," <center><img width=""300px"" src=""assets/stanford.png"" /></center><div id=""legal""></br>By answering the following questions, you are participating in a study being performed by cognitive scientists in the Stanford Department of Psychology. If you have questions about this research, please contact us at  <a href=""mailto://languagecoglab@gmail.com.""> languagecoglab@gmail.com</a>. You must be at least 18 years old to participate. Your participation in this research is voluntary. You may decline to answer any or all of the following questions. You may decline further participation, at any time, without adverse consequences. Your anonymity is assured; the researchers who have requested your participation will not receive any personal information about you. </div></br>",,,18158,,1,html-button-response,,,
3057,foobar,,,,,,,,,0.0-2.0,,,0,4731,,"<h3>Please read these instructions carefully!</h3> </br><div id=""intro""> <p>In this task, you will see a <b>transcript of a conversation</b> some previous participants had where a <b>speaker identified one of the images to some listeners</b>.</p><p>Your goal is to <b>read the transcript</b> and <b>figure out which image</b> is being described! </p><p>You will <b>read the transcript word-by-word, pressing SPACEBAR to reveal each word.</b>  When you have finished reading, you will <b>click the image</b> you think is being described.  Then you will <b>find out if your selection is correct</b>.<p><center><img width=""600px"" src=""assets/demo2.png"" /></center></br><p>You will see <b>72 trials</b>. The image choices will be the same on each trial, and the descriptions will all be from the same group of participants.</p> <p>Some of the transcripts may be much shorter or longer than others. Some of the descriptions may be hard to understand -- just take a guess if you are not sure.</p><p>You will get a bonus of <b>5 cents</b> for each image you get right! </p><p> <b>Note:</b> These descriptions came from real people and may contain inappropriate or offensive language. If you find a description inappropriate, please let us know via Prolific message or in the exit survey, so we can filter it out in the future.</p>",,,22892,,2,html-button-response,,,
3057,foobar,,shuffled,,J,,,,Z2WAkYpWiXwuGcdME,0.0-3.0-0.0,1,13,,"[926, 461, 190, 145, 140, 382, 159, 135, 339]",,,,"[{'role': 'speaker', 'text': 'large squarish person', 'playerId': 'R3cRgh4HmEtRsmQyp'}, {'role': 'speaker', 'text': 'with two points facing right', 'playerId': 'R3cRgh4HmEtRsmQyp'}]",25790,,3,spr-buttons,reading,[],
3057,foobar,1868,shuffled,True,J,,,,Z2WAkYpWiXwuGcdME,0.0-3.0-1.0,1,13,7,[],J,,,"[{'role': 'speaker', 'text': 'large squarish person', 'playerId': 'R3cRgh4HmEtRsmQyp'}, {'role': 'speaker', 'text': 'with two points facing right', 'playerId': 'R3cRgh4HmEtRsmQyp'}]",27658,,4,spr-buttons,selection,[],
3057,foobar,,shuffled,,J,,,,Z2WAkYpWiXwuGcdME,0.0-3.0-2.0,1,13,,[],,,,"[{'role': 'speaker', 'text': 'large squarish person', 'playerId': 'R3cRgh4HmEtRsmQyp'}, {'role': 'speaker', 'text': 'with two points facing right', 'playerId': 'R3cRgh4HmEtRsmQyp'}]",28568,,5,spr-buttons,feedback,[],
3057,foobar,,shuffled,,E,,,,Z2WAkYpWiXwuGcdME,0.0-3.0-0.1,5,70,,"[476, 168, 87]",,,,"[{'role': 'speaker', 'text': 'triangle bunny', 'playerId': 'R3cRgh4HmEtRsmQyp'}]",29308,,6,spr-buttons,reading,[],
3057,foobar,2162,shuffled,True,E,,,,Z2WAkYpWiXwuGcdME,0.0-3.0-1.1,5,70,8,[],E,,,"[{'role': 'speaker', 'text': 'triangle bunny', 'playerId': 'R3cRgh4HmEtRsmQyp'}]",31472,,7,spr-buttons,selection,[],
3057,foobar,,shuffled,,E,,,,Z2WAkYpWiXwuGcdME,0.0-3.0-2.1,5,70,,[],,,,"[{'role': 'speaker', 'text': 'triangle bunny', 'playerId': 'R3cRgh4HmEtRsmQyp'}]",32380,,8,spr-buttons,feedback,[],
3057,foobar,,shuffled,,F,,,,Z2WAkYpWiXwuGcdME,0.0-3.0-0.2,4,56,,"[431, 157]",,,,"[{'role': 'speaker', 'text': 'sad', 'playerId': 'R3cRgh4HmEtRsmQyp'}]",32974,,9,spr-buttons,reading,[],
3057,foobar,1473,shuffled,True,F,,,,Z2WAkYpWiXwuGcdME,0.0-3.0-1.2,4,56,5,[],F,,,"[{'role': 'speaker', 'text': 'sad', 'playerId': 'R3cRgh4HmEtRsmQyp'}]",34450,,10,spr-buttons,selection,[],
3057,foobar,,shuffled,,F,,,,Z2WAkYpWiXwuGcdME,0.0-3.0-2.2,4,56,,[],,,,"[{'role': 'speaker', 'text': 'sad', 'playerId': 'R3cRgh4HmEtRsmQyp'}]",35356,,11,spr-buttons,feedback,[],
3057,foobar,,shuffled,,A,,,,Z2WAkYpWiXwuGcdME,0.0-3.0-0.3,5,62,,"[415, 157, 116]",,,,"[{'role': 'speaker', 'text': 'two head', 'playerId': 'R3cRgh4HmEtRsmQyp'}]",36054,,12,spr-buttons,reading,[],
3057,foobar,1815,shuffled,True,A,,,,Z2WAkYpWiXwuGcdME,0.0-3.0-1.3,5,62,6,[],A,,,"[{'role': 'speaker', 'text': 'two head', 'playerId': 'R3cRgh4HmEtRsmQyp'}]",37870,,13,spr-buttons,selection,[],
3057,foobar,,shuffled,,A,,,,Z2WAkYpWiXwuGcdME,0.0-3.0-2.3,5,62,,[],,,,"[{'role': 'speaker', 'text': 'two head', 'playerId': 'R3cRgh4HmEtRsmQyp'}]",38777,,14,spr-buttons,feedback,[],
3057,foobar,,shuffled,,J,,,,Z2WAkYpWiXwuGcdME,0.0-3.0-0.4,2,31,,"[396, 147, 128]",,,,"[{'role': 'speaker', 'text': 'large rectangular', 'playerId': 'R3cRgh4HmEtRsmQyp'}]",39456,,15,spr-buttons,reading,[],
3057,foobar,2325,shuffled,True,J,,,,Z2WAkYpWiXwuGcdME,0.0-3.0-1.4,2,31,7,[],J,,,"[{'role': 'speaker', 'text': 'large rectangular', 'playerId': 'R3cRgh4HmEtRsmQyp'}]",41783,,16,spr-buttons,selection,[],
3057,foobar,,shuffled,,J,,,,Z2WAkYpWiXwuGcdME,0.0-3.0-2.4,2,31,,[],,,,"[{'role': 'speaker', 'text': 'large rectangular', 'playerId': 'R3cRgh4HmEtRsmQyp'}]",42689,,17,spr-buttons,feedback,[],
3057,foobar,,shuffled,,D,,,,Z2WAkYpWiXwuGcdME,0.0-3.0-0.5,1,17,,"[346, 133, 140, 443]",,,,"[{'role': 'speaker', 'text': 'reading letter guy', 'playerId': 'R3cRgh4HmEtRsmQyp'}]",43759,,18,spr-buttons,reading,[],
3057,foobar,3319,shuffled,True,D,,,,Z2WAkYpWiXwuGcdME,0.0-3.0-1.5,1,17,10,[],D,,,"[{'role': 'speaker', 'text': 'reading letter guy', 'playerId': 'R3cRgh4HmEtRsmQyp'}]",47080,,19,spr-buttons,selection,[],
3057,foobar,,shuffled,,D,,,,Z2WAkYpWiXwuGcdME,0.0-3.0-2.5,1,17,,[],,,,"[{'role': 'speaker', 'text': 'reading letter guy', 'playerId': 'R3cRgh4HmEtRsmQyp'}]",48097,,20,spr-buttons,feedback,[],
3057,foobar,,shuffled,,K,,,,Z2WAkYpWiXwuGcdME,0.0-3.0-0.6,0,10,,"[453, 135, 158, 131, 127, 151, 138, 151, 142, 128, 128, 132, 493]",,,,"[{'role': 'speaker', 'text': 'another begging person, this time one with the triangle out the back', 'playerId': 'R3cRgh4HmEtRsmQyp'}]",50572,,21,spr-buttons,reading,[],
3057,foobar,3386,shuffled,True,K,,,,Z2WAkYpWiXwuGcdME,0.0-3.0-1.6,0,10,0,[],K,,,"[{'role': 'speaker', 'text': 'another begging person, this time one with the triangle out the back', 'playerId': 'R3cRgh4HmEtRsmQyp'}]",53960,,22,spr-buttons,selection,[],
3057,foobar,,shuffled,,K,,,,Z2WAkYpWiXwuGcdME,0.0-3.0-2.6,0,10,,[],,,,"[{'role': 'speaker', 'text': 'another begging person, this time one with the triangle out the back', 'playerId': 'R3cRgh4HmEtRsmQyp'}]",54868,,23,spr-buttons,feedback,[],
3057,foobar,,shuffled,,F,,,,Z2WAkYpWiXwuGcdME,0.0-3.0-0.7,3,47,,"[393, 138]",,,,"[{'role': 'speaker', 'text': 'sad', 'playerId': 'R3cRgh4HmEtRsmQyp'}]",55407,,24,spr-buttons,reading,[],
3057,foobar,1106,shuffled,True,F,,,,Z2WAkYpWiXwuGcdME,0.0-3.0-1.7,3,47,5,[],F,,,"[{'role': 'speaker', 'text': 'sad', 'playerId': 'R3cRgh4HmEtRsmQyp'}]",56512,,25,spr-buttons,selection,[],
3057,foobar,,shuffled,,F,,,,Z2WAkYpWiXwuGcdME,0.0-3.0-2.7,3,47,,[],,,,"[{'role': 'speaker', 'text': 'sad', 'playerId': 'R3cRgh4HmEtRsmQyp'}]",57420,,26,spr-buttons,feedback,[],
3057,foobar,,shuffled,,C,,,,Z2WAkYpWiXwuGcdME,0.0-3.0-0.8,0,5,,"[433, 158, 131, 138, 129, 132, 129, 114, 277, 303]",,,,"[{'role': 'speaker', 'text': 'looks like someone throwing their hands in the air', 'playerId': 'R3cRgh4HmEtRsmQyp'}]",59371,,27,spr-buttons,reading,[],
3057,foobar,2576,shuffled,True,C,,,,Z2WAkYpWiXwuGcdME,0.0-3.0-1.8,0,5,9,[],C,,,"[{'role': 'speaker', 'text': 'looks like someone throwing their hands in the air', 'playerId': 'R3cRgh4HmEtRsmQyp'}]",61948,,28,spr-buttons,selection,[],
3057,foobar,,shuffled,,C,,,,Z2WAkYpWiXwuGcdME,0.0-3.0-2.8,0,5,,[],,,,"[{'role': 'speaker', 'text': 'looks like someone throwing their hands in the air', 'playerId': 'R3cRgh4HmEtRsmQyp'}]",62856,,29,spr-buttons,feedback,[],
3057,foobar,,shuffled,,G,,,,Z2WAkYpWiXwuGcdME,0.0-3.0-0.9,4,58,,"[417, 144, 113]",,,,"[{'role': 'speaker', 'text': 'square bunny', 'playerId': 'R3cRgh4HmEtRsmQyp'}]",63537,,30,spr-buttons,reading,[],
3057,foobar,1687,shuffled,False,G,,,,Z2WAkYpWiXwuGcdME,0.0-3.0-1.9,4,58,8,[],E,,,"[{'role': 'speaker', 'text': 'square bunny', 'playerId': 'R3cRgh4HmEtRsmQyp'}]",65227,,31,spr-buttons,selection,[],
3057,foobar,,shuffled,,G,,,,Z2WAkYpWiXwuGcdME,0.0-3.0-2.9,4,58,,[],,,,"[{'role': 'speaker', 'text': 'square bunny', 'playerId': 'R3cRgh4HmEtRsmQyp'}]",66135,,32,spr-buttons,feedback,[],
3057,foobar,,shuffled,,L,,,,Z2WAkYpWiXwuGcdME,0.0-3.0-0.10,2,34,,"[643, 148, 176, 131]",,,,"[{'role': 'speaker', 'text': 'begging no triangle', 'playerId': 'R3cRgh4HmEtRsmQyp'}]",67242,,33,spr-buttons,reading,[],
3057,foobar,1797,shuffled,True,L,,,,Z2WAkYpWiXwuGcdME,0.0-3.0-1.10,2,34,1,[],L,,,"[{'role': 'speaker', 'text': 'begging no triangle', 'playerId': 'R3cRgh4HmEtRsmQyp'}]",69040,,34,spr-buttons,selection,[],
3057,foobar,,shuffled,,L,,,,Z2WAkYpWiXwuGcdME,0.0-3.0-2.10,2,34,,[],,,,"[{'role': 'speaker', 'text': 'begging no triangle', 'playerId': 'R3cRgh4HmEtRsmQyp'}]",69946,,35,spr-buttons,feedback,[],
3057,foobar,,shuffled,,D,,,,Z2WAkYpWiXwuGcdME,0.0-3.0-0.11,5,69,,"[453, 149]",,,,"[{'role': 'speaker', 'text': 'letter', 'playerId': 'R3cRgh4HmEtRsmQyp'}]",70555,,36,spr-buttons,reading,[],
3057,foobar,2311,shuffled,True,D,,,,Z2WAkYpWiXwuGcdME,0.0-3.0-1.11,5,69,10,[],D,,,"[{'role': 'speaker', 'text': 'letter', 'playerId': 'R3cRgh4HmEtRsmQyp'}]",72868,,37,spr-buttons,selection,[],
3057,foobar,,shuffled,,D,,,,Z2WAkYpWiXwuGcdME,0.0-3.0-2.11,5,69,,[],,,,"[{'role': 'speaker', 'text': 'letter', 'playerId': 'R3cRgh4HmEtRsmQyp'}]",73778,,38,spr-buttons,feedback,[],
3057,foobar,,shuffled,,B,,,,Z2WAkYpWiXwuGcdME,0.0-3.0-0.12,5,60,,"[539, 148, 126, 129]",,,,"[{'role': 'speaker', 'text': 'arm air kneel', 'playerId': 'R3cRgh4HmEtRsmQyp'}]",74727,,39,spr-buttons,reading,[],
3057,foobar,3116,shuffled,False,B,,,,Z2WAkYpWiXwuGcdME,0.0-3.0-1.12,5,60,2,[],G,,,"[{'role': 'speaker', 'text': 'arm air kneel', 'playerId': 'R3cRgh4HmEtRsmQyp'}]",77844,,40,spr-buttons,selection,[],
3057,foobar,,shuffled,,B,,,,Z2WAkYpWiXwuGcdME,0.0-3.0-2.12,5,60,,[],,,,"[{'role': 'speaker', 'text': 'arm air kneel', 'playerId': 'R3cRgh4HmEtRsmQyp'}]",78754,,41,spr-buttons,feedback,[],
3057,foobar,,shuffled,,G,,,,Z2WAkYpWiXwuGcdME,0.0-3.0-0.13,2,26,,"[373, 160, 161, 141]",,,,"[{'role': 'speaker', 'text': 'square ear rabbit', 'playerId': 'R3cRgh4HmEtRsmQyp'}]",79596,,42,spr-buttons,reading,[],
3057,foobar,3460,shuffled,False,G,,,,Z2WAkYpWiXwuGcdME,0.0-3.0-1.13,2,26,3,[],B,,,"[{'role': 'speaker', 'text': 'square ear rabbit', 'playerId': 'R3cRgh4HmEtRsmQyp'}]",83058,,43,spr-buttons,selection,[],
3057,foobar,,shuffled,,G,,,,Z2WAkYpWiXwuGcdME,0.0-3.0-2.13,2,26,,[],,,,"[{'role': 'speaker', 'text': 'square ear rabbit', 'playerId': 'R3cRgh4HmEtRsmQyp'}]",83984,,44,spr-buttons,feedback,[],
3057,foobar,,shuffled,,C,,,,Z2WAkYpWiXwuGcdME,0.0-3.0-0.14,4,55,,"[418, 147, 156, 120]",,,,"[{'role': 'speaker', 'text': 'arm air stand', 'playerId': 'R3cRgh4HmEtRsmQyp'}]",84832,,45,spr-buttons,reading,[],
3057,foobar,2476,shuffled,True,C,,,,Z2WAkYpWiXwuGcdME,0.0-3.0-1.14,4,55,9,[],C,,,"[{'role': 'speaker', 'text': 'arm air stand', 'playerId': 'R3cRgh4HmEtRsmQyp'}]",87310,,46,spr-buttons,selection,[],
3057,foobar,,shuffled,,C,,,,Z2WAkYpWiXwuGcdME,0.0-3.0-2.14,4,55,,[],,,,"[{'role': 'speaker', 'text': 'arm air stand', 'playerId': 'R3cRgh4HmEtRsmQyp'}]",88216,,47,spr-buttons,feedback,[],
3057,foobar,,shuffled,,D,,,,Z2WAkYpWiXwuGcdME,0.0-3.0-0.15,4,53,,"[461, 131]",,,,"[{'role': 'speaker', 'text': 'letter', 'playerId': 'R3cRgh4HmEtRsmQyp'}]",88817,,48,spr-buttons,reading,[],
3057,foobar,2607,shuffled,True,D,,,,Z2WAkYpWiXwuGcdME,0.0-3.0-1.15,4,53,10,[],D,,,"[{'role': 'speaker', 'text': 'letter', 'playerId': 'R3cRgh4HmEtRsmQyp'}]",91426,,49,spr-buttons,selection,[],
3057,foobar,,shuffled,,D,,,,Z2WAkYpWiXwuGcdME,0.0-3.0-2.15,4,53,,[],,,,"[{'role': 'speaker', 'text': 'letter', 'playerId': 'R3cRgh4HmEtRsmQyp'}]",92381,,50,spr-buttons,feedback,[],
3057,foobar,,shuffled,,K,,,,Z2WAkYpWiXwuGcdME,0.0-3.0-0.16,5,68,,"[396, 148, 118]",,,,"[{'role': 'speaker', 'text': 'beg triangle', 'playerId': 'R3cRgh4HmEtRsmQyp'}]",93050,,51,spr-buttons,reading,[],
3057,foobar,1754,shuffled,True,K,,,,Z2WAkYpWiXwuGcdME,0.0-3.0-1.16,5,68,0,[],K,,,"[{'role': 'speaker', 'text': 'beg triangle', 'playerId': 'R3cRgh4HmEtRsmQyp'}]",94805,,52,spr-buttons,selection,[],
3057,foobar,,shuffled,,K,,,,Z2WAkYpWiXwuGcdME,0.0-3.0-2.16,5,68,,[],,,,"[{'role': 'speaker', 'text': 'beg triangle', 'playerId': 'R3cRgh4HmEtRsmQyp'}]",95712,,53,spr-buttons,feedback,[],
3057,foobar,,shuffled,,G,,,,Z2WAkYpWiXwuGcdME,0.0-3.0-0.17,1,22,,"[389, 160, 131, 113, 120]",,,,"[{'role': 'speaker', 'text': 'rabbit with square ear', 'playerId': 'R3cRgh4HmEtRsmQyp'}]",96633,,54,spr-buttons,reading,[],
3057,foobar,7844,shuffled,False,G,,,,Z2WAkYpWiXwuGcdME,0.0-3.0-1.17,1,22,6,[],A,,,"[{'role': 'speaker', 'text': 'rabbit with square ear', 'playerId': 'R3cRgh4HmEtRsmQyp'}]",104478,,55,spr-buttons,selection,[],
3057,foobar,,shuffled,,G,,,,Z2WAkYpWiXwuGcdME,0.0-3.0-2.17,1,22,,[],,,,"[{'role': 'speaker', 'text': 'rabbit with square ear', 'playerId': 'R3cRgh4HmEtRsmQyp'}]",105384,,56,spr-buttons,feedback,[],
3057,foobar,,shuffled,,H,,,,Z2WAkYpWiXwuGcdME,0.0-3.0-0.18,5,61,,"[737, 155]",,,,"[{'role': 'speaker', 'text': 'limbles', 'playerId': 'R3cRgh4HmEtRsmQyp'}]",106286,,57,spr-buttons,reading,[],
3057,foobar,3116,shuffled,True,H,,,,Z2WAkYpWiXwuGcdME,0.0-3.0-1.18,5,61,11,[],H,,,"[{'role': 'speaker', 'text': 'limbles', 'playerId': 'R3cRgh4HmEtRsmQyp'}]",109403,,58,spr-buttons,selection,[],
3057,foobar,,shuffled,,H,,,,Z2WAkYpWiXwuGcdME,0.0-3.0-2.18,5,61,,[],,,,"[{'role': 'speaker', 'text': 'limbles', 'playerId': 'R3cRgh4HmEtRsmQyp'}]",110312,,59,spr-buttons,feedback,[],
3057,foobar,,shuffled,,K,,,,Z2WAkYpWiXwuGcdME,0.0-3.0-0.19,2,33,,"[798, 145, 157, 125]",,,,"[{'role': 'speaker', 'text': 'begging triangle back', 'playerId': 'R3cRgh4HmEtRsmQyp'}]",111543,,60,spr-buttons,reading,[],
3057,foobar,1462,shuffled,True,K,,,,Z2WAkYpWiXwuGcdME,0.0-3.0-1.19,2,33,0,[118],K,,,"[{'role': 'speaker', 'text': 'begging triangle back', 'playerId': 'R3cRgh4HmEtRsmQyp'}]",113006,,61,spr-buttons,selection,[],
3057,foobar,,shuffled,,K,,,,Z2WAkYpWiXwuGcdME,0.0-3.0-2.19,2,33,,[],,,,"[{'role': 'speaker', 'text': 'begging triangle back', 'playerId': 'R3cRgh4HmEtRsmQyp'}]",113913,,62,spr-buttons,feedback,[],
3057,foobar,,shuffled,,L,,,,Z2WAkYpWiXwuGcdME,0.0-3.0-0.20,1,16,,"[477, 111, 153, 125, 130, 141, 122]",,,,"[{'role': 'speaker', 'text': 'begging but without triangle on back', 'playerId': 'R3cRgh4HmEtRsmQyp'}]",115178,,63,spr-buttons,reading,[],
3057,foobar,1420,shuffled,True,L,,,,Z2WAkYpWiXwuGcdME,0.0-3.0-1.20,1,16,1,[],L,,,"[{'role': 'speaker', 'text': 'begging but without triangle on back', 'playerId': 'R3cRgh4HmEtRsmQyp'}]",116600,,64,spr-buttons,selection,[],
3057,foobar,,shuffled,,L,,,,Z2WAkYpWiXwuGcdME,0.0-3.0-2.20,1,16,,[],,,,"[{'role': 'speaker', 'text': 'begging but without triangle on back', 'playerId': 'R3cRgh4HmEtRsmQyp'}]",117506,,65,spr-buttons,feedback,[],
3057,foobar,,shuffled,,E,,,,Z2WAkYpWiXwuGcdME,0.0-3.0-0.21,1,18,,"[611, 164, 125, 139, 133, 122, 124, 130, 132, 138, 128, 131, 144, 120, 133, 126]",,,,"[{'role': 'speaker', 'text': 'rabbit with triangle ears, kind of lying down', 'playerId': 'R3cRgh4HmEtRsmQyp'}, {'role': 'listener', 'text': 'With the triangular body', 'playerId': 'nt3EW7xXyRQqvDebf'}, {'role': 'listener', 'text': 'Pointing right', 'playerId': 'nt3EW7xXyRQqvDebf'}]",120115,,66,spr-buttons,reading,[],
3057,foobar,1415,shuffled,True,E,,,,Z2WAkYpWiXwuGcdME,0.0-3.0-1.21,1,18,8,[120],E,,,"[{'role': 'speaker', 'text': 'rabbit with triangle ears, kind of lying down', 'playerId': 'R3cRgh4HmEtRsmQyp'}, {'role': 'listener', 'text': 'With the triangular body', 'playerId': 'nt3EW7xXyRQqvDebf'}, {'role': 'listener', 'text': 'Pointing right', 'playerId': 'nt3EW7xXyRQqvDebf'}]",121533,,67,spr-buttons,selection,[],
3057,foobar,,shuffled,,E,,,,Z2WAkYpWiXwuGcdME,0.0-3.0-2.21,1,18,,[],,,,"[{'role': 'speaker', 'text': 'rabbit with triangle ears, kind of lying down', 'playerId': 'R3cRgh4HmEtRsmQyp'}, {'role': 'listener', 'text': 'With the triangular body', 'playerId': 'nt3EW7xXyRQqvDebf'}, {'role': 'listener', 'text': 'Pointing right', 'playerId': 'nt3EW7xXyRQqvDebf'}]",122441,,68,spr-buttons,feedback,[],
3057,foobar,,shuffled,,B,,,,Z2WAkYpWiXwuGcdME,0.0-3.0-0.22,1,15,,"[636, 144, 132, 127, 116, 116]",,,,"[{'role': 'speaker', 'text': 'kneeling with arms in air', 'playerId': 'R3cRgh4HmEtRsmQyp'}]",123720,,69,spr-buttons,reading,[],
3057,foobar,2524,shuffled,False,B,,,,Z2WAkYpWiXwuGcdME,0.0-3.0-1.22,1,15,9,[],C,,,"[{'role': 'speaker', 'text': 'kneeling with arms in air', 'playerId': 'R3cRgh4HmEtRsmQyp'}]",126245,,70,spr-buttons,selection,[],
3057,foobar,,shuffled,,B,,,,Z2WAkYpWiXwuGcdME,0.0-3.0-2.22,1,15,,[],,,,"[{'role': 'speaker', 'text': 'kneeling with arms in air', 'playerId': 'R3cRgh4HmEtRsmQyp'}]",127154,,71,spr-buttons,feedback,[],
3057,foobar,,shuffled,,J,,,,Z2WAkYpWiXwuGcdME,0.0-3.0-0.23,3,46,,"[1518, 153, 135]",,,,"[{'role': 'speaker', 'text': 'large rectangle', 'playerId': 'R3cRgh4HmEtRsmQyp'}]",128967,,72,spr-buttons,reading,[],
3057,foobar,1367,shuffled,True,J,,,,Z2WAkYpWiXwuGcdME,0.0-3.0-1.23,3,46,7,[126],J,,,"[{'role': 'speaker', 'text': 'large rectangle', 'playerId': 'R3cRgh4HmEtRsmQyp'}]",130336,,73,spr-buttons,selection,[],
3057,foobar,,shuffled,,J,,,,Z2WAkYpWiXwuGcdME,0.0-3.0-2.23,3,46,,[],,,,"[{'role': 'speaker', 'text': 'large rectangle', 'playerId': 'R3cRgh4HmEtRsmQyp'}]",131242,,74,spr-buttons,feedback,[],
3057,foobar,,shuffled,,B,,,,Z2WAkYpWiXwuGcdME,0.0-3.0-0.24,2,27,,"[342, 132, 157, 130, 236]",,,,"[{'role': 'speaker', 'text': 'arms in air kneeling', 'playerId': 'R3cRgh4HmEtRsmQyp'}]",132247,,75,spr-buttons,reading,[],
3057,foobar,1414,shuffled,True,B,,,,Z2WAkYpWiXwuGcdME,0.0-3.0-1.24,2,27,3,[167],B,,,"[{'role': 'speaker', 'text': 'arms in air kneeling', 'playerId': 'R3cRgh4HmEtRsmQyp'}]",133660,,76,spr-buttons,selection,[],
3057,foobar,,shuffled,,B,,,,Z2WAkYpWiXwuGcdME,0.0-3.0-2.24,2,27,,[],,,,"[{'role': 'speaker', 'text': 'arms in air kneeling', 'playerId': 'R3cRgh4HmEtRsmQyp'}]",134567,,77,spr-buttons,feedback,[],
3057,foobar,,shuffled,,K,,,,Z2WAkYpWiXwuGcdME,0.0-3.0-0.25,1,14,,"[540, 169, 149, 119, 117, 133]",,,,"[{'role': 'speaker', 'text': 'begging with triangle on back', 'playerId': 'R3cRgh4HmEtRsmQyp'}]",135800,,78,spr-buttons,reading,[],
3057,foobar,1232,shuffled,True,K,,,,Z2WAkYpWiXwuGcdME,0.0-3.0-1.25,1,14,0,[],K,,,"[{'role': 'speaker', 'text': 'begging with triangle on back', 'playerId': 'R3cRgh4HmEtRsmQyp'}]",137034,,79,spr-buttons,selection,[],
3057,foobar,,shuffled,,K,,,,Z2WAkYpWiXwuGcdME,0.0-3.0-2.25,1,14,,[],,,,"[{'role': 'speaker', 'text': 'begging with triangle on back', 'playerId': 'R3cRgh4HmEtRsmQyp'}]",137943,,80,spr-buttons,feedback,[],
3057,foobar,,shuffled,,E,,,,Z2WAkYpWiXwuGcdME,0.0-3.0-0.26,2,35,,"[399, 145, 142]",,,,"[{'role': 'speaker', 'text': 'triangle bunny', 'playerId': 'R3cRgh4HmEtRsmQyp'}]",138636,,81,spr-buttons,reading,[],
3057,foobar,2460,shuffled,True,E,,,,Z2WAkYpWiXwuGcdME,0.0-3.0-1.26,2,35,8,[],E,,,"[{'role': 'speaker', 'text': 'triangle bunny', 'playerId': 'R3cRgh4HmEtRsmQyp'}]",141098,,82,spr-buttons,selection,[],
3057,foobar,,shuffled,,E,,,,Z2WAkYpWiXwuGcdME,0.0-3.0-2.26,2,35,,[],,,,"[{'role': 'speaker', 'text': 'triangle bunny', 'playerId': 'R3cRgh4HmEtRsmQyp'}]",142013,,83,spr-buttons,feedback,[],
3057,foobar,,shuffled,,L,,,,Z2WAkYpWiXwuGcdME,0.0-3.0-0.27,3,37,,"[376, 159, 144, 124]",,,,"[{'role': 'speaker', 'text': 'beg no triangle', 'playerId': 'R3cRgh4HmEtRsmQyp'}]",142821,,84,spr-buttons,reading,[],
3057,foobar,1351,shuffled,True,L,,,,Z2WAkYpWiXwuGcdME,0.0-3.0-1.27,3,37,1,[],L,,,"[{'role': 'speaker', 'text': 'beg no triangle', 'playerId': 'R3cRgh4HmEtRsmQyp'}]",144173,,85,spr-buttons,selection,[],
3057,foobar,,shuffled,,L,,,,Z2WAkYpWiXwuGcdME,0.0-3.0-2.27,3,37,,[],,,,"[{'role': 'speaker', 'text': 'beg no triangle', 'playerId': 'R3cRgh4HmEtRsmQyp'}]",145082,,86,spr-buttons,feedback,[],
3057,foobar,,shuffled,,I,,,,Z2WAkYpWiXwuGcdME,0.0-3.0-0.28,0,4,,"[432, 153, 145, 130, 120, 133, 126, 131, 141, 124, 150, 125, 128, 142, 122, 128, 129, 132, 128, 141, 132, 130, 130, 130, 157, 114, 145, 142, 150, 151, 134, 343]",,,,"[{'role': 'speaker', 'text': 'It looks like someone with two legs at 90 degrees right angle', 'playerId': 'R3cRgh4HmEtRsmQyp'}, {'role': 'speaker', 'text': 'kind of like karate kicking', 'playerId': 'R3cRgh4HmEtRsmQyp'}, {'role': 'listener', 'text': 'facing to the left', 'playerId': 'nt3EW7xXyRQqvDebf'}, {'role': 'speaker', 'text': 'yeah with two triangle bits pointing left too', 'playerId': 'R3cRgh4HmEtRsmQyp'}]",149923,,87,spr-buttons,reading,[],
3057,foobar,1230,shuffled,True,I,,,,Z2WAkYpWiXwuGcdME,0.0-3.0-1.28,0,4,4,[],I,,,"[{'role': 'speaker', 'text': 'It looks like someone with two legs at 90 degrees right angle', 'playerId': 'R3cRgh4HmEtRsmQyp'}, {'role': 'speaker', 'text': 'kind of like karate kicking', 'playerId': 'R3cRgh4HmEtRsmQyp'}, {'role': 'listener', 'text': 'facing to the left', 'playerId': 'nt3EW7xXyRQqvDebf'}, {'role': 'speaker', 'text': 'yeah with two triangle bits pointing left too', 'playerId': 'R3cRgh4HmEtRsmQyp'}]",151156,,88,spr-buttons,selection,[],
3057,foobar,,shuffled,,I,,,,Z2WAkYpWiXwuGcdME,0.0-3.0-2.28,0,4,,[],,,,"[{'role': 'speaker', 'text': 'It looks like someone with two legs at 90 degrees right angle', 'playerId': 'R3cRgh4HmEtRsmQyp'}, {'role': 'speaker', 'text': 'kind of like karate kicking', 'playerId': 'R3cRgh4HmEtRsmQyp'}, {'role': 'listener', 'text': 'facing to the left', 'playerId': 'nt3EW7xXyRQqvDebf'}, {'role': 'speaker', 'text': 'yeah with two triangle bits pointing left too', 'playerId': 'R3cRgh4HmEtRsmQyp'}]",152068,,89,spr-buttons,feedback,[],
3057,foobar,,shuffled,,C,,,,Z2WAkYpWiXwuGcdME,0.0-3.0-0.29,2,28,,"[760, 159, 123, 140, 144]",,,,"[{'role': 'speaker', 'text': 'arms in air standing', 'playerId': 'R3cRgh4HmEtRsmQyp'}]",153401,,90,spr-buttons,reading,[],
3057,foobar,1450,shuffled,True,C,,,,Z2WAkYpWiXwuGcdME,0.0-3.0-1.29,2,28,9,[114],C,,,"[{'role': 'speaker', 'text': 'arms in air standing', 'playerId': 'R3cRgh4HmEtRsmQyp'}]",154853,,91,spr-buttons,selection,[],
3057,foobar,,shuffled,,C,,,,Z2WAkYpWiXwuGcdME,0.0-3.0-2.29,2,28,,[],,,,"[{'role': 'speaker', 'text': 'arms in air standing', 'playerId': 'R3cRgh4HmEtRsmQyp'}]",155761,,92,spr-buttons,feedback,[],
3057,foobar,,shuffled,,A,,,,Z2WAkYpWiXwuGcdME,0.0-3.0-0.30,3,41,,"[427, 251, 185, 129]",,,,"[{'role': 'speaker', 'text': 'two head guy', 'playerId': 'R3cRgh4HmEtRsmQyp'}]",156760,,93,spr-buttons,reading,[],
3057,foobar,1396,shuffled,True,A,,,,Z2WAkYpWiXwuGcdME,0.0-3.0-1.30,3,41,6,[],A,,,"[{'role': 'speaker', 'text': 'two head guy', 'playerId': 'R3cRgh4HmEtRsmQyp'}]",158157,,94,spr-buttons,selection,[],
3057,foobar,,shuffled,,A,,,,Z2WAkYpWiXwuGcdME,0.0-3.0-2.30,3,41,,[],,,,"[{'role': 'speaker', 'text': 'two head guy', 'playerId': 'R3cRgh4HmEtRsmQyp'}]",159065,,95,spr-buttons,feedback,[],
3057,foobar,,shuffled,,F,,,,Z2WAkYpWiXwuGcdME,0.0-3.0-0.31,2,32,,"[536, 150, 145]",,,,"[{'role': 'speaker', 'text': 'sad sitting', 'playerId': 'R3cRgh4HmEtRsmQyp'}]",159902,,96,spr-buttons,reading,[],
3057,foobar,1221,shuffled,True,F,,,,Z2WAkYpWiXwuGcdME,0.0-3.0-1.31,2,32,5,[],F,,,"[{'role': 'speaker', 'text': 'sad sitting', 'playerId': 'R3cRgh4HmEtRsmQyp'}]",161124,,97,spr-buttons,selection,[],
3057,foobar,,shuffled,,F,,,,Z2WAkYpWiXwuGcdME,0.0-3.0-2.31,2,32,,[],,,,"[{'role': 'speaker', 'text': 'sad sitting', 'playerId': 'R3cRgh4HmEtRsmQyp'}]",162034,,98,spr-buttons,feedback,[],
3057,foobar,,shuffled,,G,,,,Z2WAkYpWiXwuGcdME,0.0-3.0-0.32,3,40,,"[446, 169, 132]",,,,"[{'role': 'speaker', 'text': 'square bunny', 'playerId': 'R3cRgh4HmEtRsmQyp'}]",162787,,99,spr-buttons,reading,[],
3057,foobar,6082,shuffled,True,G,,,,Z2WAkYpWiXwuGcdME,0.0-3.0-1.32,3,40,2,[],G,,,"[{'role': 'speaker', 'text': 'square bunny', 'playerId': 'R3cRgh4HmEtRsmQyp'}]",168873,,100,spr-buttons,selection,[],
3057,foobar,,shuffled,,G,,,,Z2WAkYpWiXwuGcdME,0.0-3.0-2.32,3,40,,[],,,,"[{'role': 'speaker', 'text': 'square bunny', 'playerId': 'R3cRgh4HmEtRsmQyp'}]",169827,,101,spr-buttons,feedback,[],
3057,foobar,,shuffled,,E,,,,Z2WAkYpWiXwuGcdME,0.0-3.0-0.33,4,48,,"[1603, 168, 208]",,,,"[{'role': 'speaker', 'text': 'triangle bunny', 'playerId': 'R3cRgh4HmEtRsmQyp'}]",171812,,102,spr-buttons,reading,[],
3057,foobar,1214,shuffled,True,E,,,,Z2WAkYpWiXwuGcdME,0.0-3.0-1.33,4,48,8,[],E,,,"[{'role': 'speaker', 'text': 'triangle bunny', 'playerId': 'R3cRgh4HmEtRsmQyp'}]",173028,,103,spr-buttons,selection,[],
3057,foobar,,shuffled,,E,,,,Z2WAkYpWiXwuGcdME,0.0-3.0-2.33,4,48,,[],,,,"[{'role': 'speaker', 'text': 'triangle bunny', 'playerId': 'R3cRgh4HmEtRsmQyp'}]",173934,,104,spr-buttons,feedback,[],
3057,foobar,,shuffled,,H,,,,Z2WAkYpWiXwuGcdME,0.0-3.0-0.34,3,43,,"[869, 147]",,,,"[{'role': 'speaker', 'text': 'limbless', 'playerId': 'R3cRgh4HmEtRsmQyp'}]",174956,,105,spr-buttons,reading,[],
3057,foobar,1820,shuffled,True,H,,,,Z2WAkYpWiXwuGcdME,0.0-3.0-1.34,3,43,11,[],H,,,"[{'role': 'speaker', 'text': 'limbless', 'playerId': 'R3cRgh4HmEtRsmQyp'}]",176777,,106,spr-buttons,selection,[],
3057,foobar,,shuffled,,H,,,,Z2WAkYpWiXwuGcdME,0.0-3.0-2.34,3,43,,[],,,,"[{'role': 'speaker', 'text': 'limbless', 'playerId': 'R3cRgh4HmEtRsmQyp'}]",177682,,107,spr-buttons,feedback,[],
3057,foobar,,shuffled,,J,,,,Z2WAkYpWiXwuGcdME,0.0-3.0-0.35,0,1,,"[380, 157, 151, 150, 137, 131, 136, 129, 115, 132, 132, 134, 121, 141, 157, 320, 180]",,,,"[{'role': 'speaker', 'text': 'looks like a large person with two pointy bits pointing right', 'playerId': 'R3cRgh4HmEtRsmQyp'}, {'role': 'speaker', 'text': 'rectangular body on left side', 'playerId': 'R3cRgh4HmEtRsmQyp'}]",180492,,108,spr-buttons,reading,[],
3057,foobar,1132,shuffled,True,J,,,,Z2WAkYpWiXwuGcdME,0.0-3.0-1.35,0,1,7,[],J,,,"[{'role': 'speaker', 'text': 'looks like a large person with two pointy bits pointing right', 'playerId': 'R3cRgh4HmEtRsmQyp'}, {'role': 'speaker', 'text': 'rectangular body on left side', 'playerId': 'R3cRgh4HmEtRsmQyp'}]",181624,,109,spr-buttons,selection,[],
3057,foobar,,shuffled,,J,,,,Z2WAkYpWiXwuGcdME,0.0-3.0-2.35,0,1,,[],,,,"[{'role': 'speaker', 'text': 'looks like a large person with two pointy bits pointing right', 'playerId': 'R3cRgh4HmEtRsmQyp'}, {'role': 'speaker', 'text': 'rectangular body on left side', 'playerId': 'R3cRgh4HmEtRsmQyp'}]",182531,,110,spr-buttons,feedback,[],
3057,foobar,,shuffled,,E,,,,Z2WAkYpWiXwuGcdME,0.0-3.0-0.36,0,3,,"[367, 147, 153, 154, 153, 140, 145, 139, 122, 135, 143, 134, 133, 126, 121, 147, 172, 132, 139, 148, 138, 179, 185, 157, 149, 146, 159, 157, 147, 129, 138, 123, 143, 136, 148, 129, 138, 138, 147, 133, 144, 138, 144, 144, 135, 144, 153]",,,,"[{'role': 'speaker', 'text': 'looks like a rabbit lying down', 'playerId': 'R3cRgh4HmEtRsmQyp'}, {'role': 'speaker', 'text': 'facing right', 'playerId': 'R3cRgh4HmEtRsmQyp'}, {'role': 'listener', 'text': 'uhhh any hands', 'playerId': 'nt3EW7xXyRQqvDebf'}, {'role': 'speaker', 'text': 'kind of triangular body', 'playerId': 'R3cRgh4HmEtRsmQyp'}, {'role': 'speaker', 'text': 'the two ears are triangles', 'playerId': 'R3cRgh4HmEtRsmQyp'}, {'role': 'listener', 'text': 'Is there a triangle on the leftmost side', 'playerId': 'nt3EW7xXyRQqvDebf'}, {'role': 'listener', 'text': 'Looks like feet', 'playerId': 'nt3EW7xXyRQqvDebf'}, {'role': 'listener', 'text': 'triangle*', 'playerId': 'nt3EW7xXyRQqvDebf'}, {'role': 'speaker', 'text': 'not really but kind of on the right hand side', 'playerId': 'R3cRgh4HmEtRsmQyp'}]",189528,,111,spr-buttons,reading,[],
3057,foobar,1405,shuffled,True,E,,,,Z2WAkYpWiXwuGcdME,0.0-3.0-1.36,0,3,8,[],E,,,"[{'role': 'speaker', 'text': 'looks like a rabbit lying down', 'playerId': 'R3cRgh4HmEtRsmQyp'}, {'role': 'speaker', 'text': 'facing right', 'playerId': 'R3cRgh4HmEtRsmQyp'}, {'role': 'listener', 'text': 'uhhh any hands', 'playerId': 'nt3EW7xXyRQqvDebf'}, {'role': 'speaker', 'text': 'kind of triangular body', 'playerId': 'R3cRgh4HmEtRsmQyp'}, {'role': 'speaker', 'text': 'the two ears are triangles', 'playerId': 'R3cRgh4HmEtRsmQyp'}, {'role': 'listener', 'text': 'Is there a triangle on the leftmost side', 'playerId': 'nt3EW7xXyRQqvDebf'}, {'role': 'listener', 'text': 'Looks like feet', 'playerId': 'nt3EW7xXyRQqvDebf'}, {'role': 'listener', 'text': 'triangle*', 'playerId': 'nt3EW7xXyRQqvDebf'}, {'role': 'speaker', 'text': 'not really but kind of on the right hand side', 'playerId': 'R3cRgh4HmEtRsmQyp'}]",190935,,112,spr-buttons,selection,[],
3057,foobar,,shuffled,,E,,,,Z2WAkYpWiXwuGcdME,0.0-3.0-2.36,0,3,,[],,,,"[{'role': 'speaker', 'text': 'looks like a rabbit lying down', 'playerId': 'R3cRgh4HmEtRsmQyp'}, {'role': 'speaker', 'text': 'facing right', 'playerId': 'R3cRgh4HmEtRsmQyp'}, {'role': 'listener', 'text': 'uhhh any hands', 'playerId': 'nt3EW7xXyRQqvDebf'}, {'role': 'speaker', 'text': 'kind of triangular body', 'playerId': 'R3cRgh4HmEtRsmQyp'}, {'role': 'speaker', 'text': 'the two ears are triangles', 'playerId': 'R3cRgh4HmEtRsmQyp'}, {'role': 'listener', 'text': 'Is there a triangle on the leftmost side', 'playerId': 'nt3EW7xXyRQqvDebf'}, {'role': 'listener', 'text': 'Looks like feet', 'playerId': 'nt3EW7xXyRQqvDebf'}, {'role': 'listener', 'text': 'triangle*', 'playerId': 'nt3EW7xXyRQqvDebf'}, {'role': 'speaker', 'text': 'not really but kind of on the right hand side', 'playerId': 'R3cRgh4HmEtRsmQyp'}]",191842,,113,spr-buttons,feedback,[],
3057,foobar,,shuffled,,L,,,,Z2WAkYpWiXwuGcdME,0.0-3.0-0.37,4,54,,"[490, 152, 142, 176]",,,,"[{'role': 'speaker', 'text': 'beg no triangle', 'playerId': 'R3cRgh4HmEtRsmQyp'}]",192807,,114,spr-buttons,reading,[],
3057,foobar,1633,shuffled,True,L,,,,Z2WAkYpWiXwuGcdME,0.0-3.0-1.37,4,54,1,[],L,,,"[{'role': 'speaker', 'text': 'beg no triangle', 'playerId': 'R3cRgh4HmEtRsmQyp'}]",194441,,115,spr-buttons,selection,[],
3057,foobar,,shuffled,,L,,,,Z2WAkYpWiXwuGcdME,0.0-3.0-2.37,4,54,,[],,,,"[{'role': 'speaker', 'text': 'beg no triangle', 'playerId': 'R3cRgh4HmEtRsmQyp'}]",195347,,116,spr-buttons,feedback,[],
3057,foobar,,shuffled,,I,,,,Z2WAkYpWiXwuGcdME,0.0-3.0-0.38,4,57,,"[2400, 354]",,,,"[{'role': 'speaker', 'text': 'karate', 'playerId': 'R3cRgh4HmEtRsmQyp'}]",198107,,117,spr-buttons,reading,[],
3057,foobar,1353,shuffled,True,I,,,,Z2WAkYpWiXwuGcdME,0.0-3.0-1.38,4,57,4,[],I,,,"[{'role': 'speaker', 'text': 'karate', 'playerId': 'R3cRgh4HmEtRsmQyp'}]",199461,,118,spr-buttons,selection,[],
3057,foobar,,shuffled,,I,,,,Z2WAkYpWiXwuGcdME,0.0-3.0-2.38,4,57,,[],,,,"[{'role': 'speaker', 'text': 'karate', 'playerId': 'R3cRgh4HmEtRsmQyp'}]",200370,,119,spr-buttons,feedback,[],
3057,foobar,,shuffled,,G,,,,Z2WAkYpWiXwuGcdME,0.0-3.0-0.39,0,7,,"[354, 161, 156, 141, 140, 141, 143, 296, 301, 171, 183, 184, 175, 188, 178, 209, 170, 229, 200, 189, 304, 179, 147, 165, 163, 193, 241, 341, 172, 361]",,,,"[{'role': 'speaker', 'text': 'this looks kind of like a rabbit again but this time one of the ears is a square', 'playerId': 'R3cRgh4HmEtRsmQyp'}, {'role': 'speaker', 'text': 'and they have a triangle pointed downwards on their right side', 'playerId': 'R3cRgh4HmEtRsmQyp'}]",206559,,120,spr-buttons,reading,[],
3057,foobar,1331,shuffled,True,G,,,,Z2WAkYpWiXwuGcdME,0.0-3.0-1.39,0,7,2,[],G,,,"[{'role': 'speaker', 'text': 'this looks kind of like a rabbit again but this time one of the ears is a square', 'playerId': 'R3cRgh4HmEtRsmQyp'}, {'role': 'speaker', 'text': 'and they have a triangle pointed downwards on their right side', 'playerId': 'R3cRgh4HmEtRsmQyp'}]",207894,,121,spr-buttons,selection,[],
3057,foobar,,shuffled,,G,,,,Z2WAkYpWiXwuGcdME,0.0-3.0-2.39,0,7,,[],,,,"[{'role': 'speaker', 'text': 'this looks kind of like a rabbit again but this time one of the ears is a square', 'playerId': 'R3cRgh4HmEtRsmQyp'}, {'role': 'speaker', 'text': 'and they have a triangle pointed downwards on their right side', 'playerId': 'R3cRgh4HmEtRsmQyp'}]",208800,,122,spr-buttons,feedback,[],
3057,foobar,,shuffled,,I,,,,Z2WAkYpWiXwuGcdME,0.0-3.0-0.40,1,23,,"[1182, 149, 141, 151]",,,,"[{'role': 'speaker', 'text': 'karate kick one', 'playerId': 'R3cRgh4HmEtRsmQyp'}]",210430,,123,spr-buttons,reading,[],
3057,foobar,1215,shuffled,True,I,,,,Z2WAkYpWiXwuGcdME,0.0-3.0-1.40,1,23,4,[],I,,,"[{'role': 'speaker', 'text': 'karate kick one', 'playerId': 'R3cRgh4HmEtRsmQyp'}]",211647,,124,spr-buttons,selection,[],
3057,foobar,,shuffled,,I,,,,Z2WAkYpWiXwuGcdME,0.0-3.0-2.40,1,23,,[],,,,"[{'role': 'speaker', 'text': 'karate kick one', 'playerId': 'R3cRgh4HmEtRsmQyp'}]",212554,,125,spr-buttons,feedback,[],
3057,foobar,,shuffled,,D,,,,Z2WAkYpWiXwuGcdME,0.0-3.0-0.41,0,11,,"[387, 148, 139, 147, 141, 127, 140, 137, 157, 148, 132, 300, 204]",,,,"[{'role': 'speaker', 'text': 'someone standing and reading a letter manuscript sort of thing', 'playerId': 'R3cRgh4HmEtRsmQyp'}, {'role': 'speaker', 'text': 'facing left', 'playerId': 'R3cRgh4HmEtRsmQyp'}]",214872,,126,spr-buttons,reading,[],
3057,foobar,1444,shuffled,True,D,,,,Z2WAkYpWiXwuGcdME,0.0-3.0-1.41,0,11,10,[180],D,,,"[{'role': 'speaker', 'text': 'someone standing and reading a letter manuscript sort of thing', 'playerId': 'R3cRgh4HmEtRsmQyp'}, {'role': 'speaker', 'text': 'facing left', 'playerId': 'R3cRgh4HmEtRsmQyp'}]",216317,,127,spr-buttons,selection,[],
3057,foobar,,shuffled,,D,,,,Z2WAkYpWiXwuGcdME,0.0-3.0-2.41,0,11,,[],,,,"[{'role': 'speaker', 'text': 'someone standing and reading a letter manuscript sort of thing', 'playerId': 'R3cRgh4HmEtRsmQyp'}, {'role': 'speaker', 'text': 'facing left', 'playerId': 'R3cRgh4HmEtRsmQyp'}]",217228,,128,spr-buttons,feedback,[],
3057,foobar,,shuffled,,A,,,,Z2WAkYpWiXwuGcdME,0.0-3.0-0.42,2,30,,"[497, 172, 139, 139, 148, 257, 157, 157, 123, 327, 312, 339]",,,,"[{'role': 'speaker', 'text': 'two headed guy with one leg in air', 'playerId': 'R3cRgh4HmEtRsmQyp'}, {'role': 'speaker', 'text': 'defined feet haha', 'playerId': 'R3cRgh4HmEtRsmQyp'}]",220006,,129,spr-buttons,reading,[],
3057,foobar,1255,shuffled,True,A,,,,Z2WAkYpWiXwuGcdME,0.0-3.0-1.42,2,30,6,[],A,,,"[{'role': 'speaker', 'text': 'two headed guy with one leg in air', 'playerId': 'R3cRgh4HmEtRsmQyp'}, {'role': 'speaker', 'text': 'defined feet haha', 'playerId': 'R3cRgh4HmEtRsmQyp'}]",221262,,130,spr-buttons,selection,[],
3057,foobar,,shuffled,,A,,,,Z2WAkYpWiXwuGcdME,0.0-3.0-2.42,2,30,,[],,,,"[{'role': 'speaker', 'text': 'two headed guy with one leg in air', 'playerId': 'R3cRgh4HmEtRsmQyp'}, {'role': 'speaker', 'text': 'defined feet haha', 'playerId': 'R3cRgh4HmEtRsmQyp'}]",222173,,131,spr-buttons,feedback,[],
3057,foobar,,shuffled,,F,,,,Z2WAkYpWiXwuGcdME,0.0-3.0-0.43,5,64,,"[445, 156]",,,,"[{'role': 'speaker', 'text': 'sad', 'playerId': 'R3cRgh4HmEtRsmQyp'}]",222780,,132,spr-buttons,reading,[],
3057,foobar,1052,shuffled,True,F,,,,Z2WAkYpWiXwuGcdME,0.0-3.0-1.43,5,64,5,[],F,,,"[{'role': 'speaker', 'text': 'sad', 'playerId': 'R3cRgh4HmEtRsmQyp'}]",223833,,133,spr-buttons,selection,[],
3057,foobar,,shuffled,,F,,,,Z2WAkYpWiXwuGcdME,0.0-3.0-2.43,5,64,,[],,,,"[{'role': 'speaker', 'text': 'sad', 'playerId': 'R3cRgh4HmEtRsmQyp'}]",224742,,134,spr-buttons,feedback,[],
3057,foobar,,shuffled,,I,,,,Z2WAkYpWiXwuGcdME,0.0-3.0-0.44,5,66,,"[479, 145]",,,,"[{'role': 'speaker', 'text': 'karate', 'playerId': 'R3cRgh4HmEtRsmQyp'}]",225374,,135,spr-buttons,reading,[],
3057,foobar,1016,shuffled,True,I,,,,Z2WAkYpWiXwuGcdME,0.0-3.0-1.44,5,66,4,[],I,,,"[{'role': 'speaker', 'text': 'karate', 'playerId': 'R3cRgh4HmEtRsmQyp'}]",226390,,136,spr-buttons,selection,[],
3057,foobar,,shuffled,,I,,,,Z2WAkYpWiXwuGcdME,0.0-3.0-2.44,5,66,,[],,,,"[{'role': 'speaker', 'text': 'karate', 'playerId': 'R3cRgh4HmEtRsmQyp'}]",227298,,137,spr-buttons,feedback,[],
3057,foobar,,shuffled,,F,,,,Z2WAkYpWiXwuGcdME,0.0-3.0-0.45,0,0,,"[611, 181, 166, 178, 177, 146, 159, 128, 142, 339]",,,,"[{'role': 'speaker', 'text': 'looks like a person sat down facing the left', 'playerId': 'R3cRgh4HmEtRsmQyp'}]",229535,,138,spr-buttons,reading,[],
3057,foobar,961,shuffled,True,F,,,,Z2WAkYpWiXwuGcdME,0.0-3.0-1.45,0,0,5,[],F,,,"[{'role': 'speaker', 'text': 'looks like a person sat down facing the left', 'playerId': 'R3cRgh4HmEtRsmQyp'}]",230496,,139,spr-buttons,selection,[],
3057,foobar,,shuffled,,F,,,,Z2WAkYpWiXwuGcdME,0.0-3.0-2.45,0,0,,[],,,,"[{'role': 'speaker', 'text': 'looks like a person sat down facing the left', 'playerId': 'R3cRgh4HmEtRsmQyp'}]",231403,,140,spr-buttons,feedback,[],
3057,foobar,,shuffled,,L,,,,Z2WAkYpWiXwuGcdME,0.0-3.0-0.46,0,9,,"[391, 184, 166, 171, 150, 145, 136, 165, 166, 160, 318, 340, 161, 190, 154, 154, 288, 153, 156, 151, 141, 153, 144, 147, 313, 368, 172, 156, 155, 169, 117, 150, 148, 179, 449]",,,,"[{'role': 'speaker', 'text': ""looks like someone begging and facing right but there are two that look like this it's the one which has quite a clear bend in the knee and no triangle pointing out the back"", 'playerId': 'R3cRgh4HmEtRsmQyp'}]",238281,,141,spr-buttons,reading,[],
3057,foobar,1036,shuffled,True,L,,,,Z2WAkYpWiXwuGcdME,0.0-3.0-1.46,0,9,1,[],L,,,"[{'role': 'speaker', 'text': ""looks like someone begging and facing right but there are two that look like this it's the one which has quite a clear bend in the knee and no triangle pointing out the back"", 'playerId': 'R3cRgh4HmEtRsmQyp'}]",239319,,142,spr-buttons,selection,[],
3057,foobar,,shuffled,,L,,,,Z2WAkYpWiXwuGcdME,0.0-3.0-2.46,0,9,,[],,,,"[{'role': 'speaker', 'text': ""looks like someone begging and facing right but there are two that look like this it's the one which has quite a clear bend in the knee and no triangle pointing out the back"", 'playerId': 'R3cRgh4HmEtRsmQyp'}]",240225,,143,spr-buttons,feedback,[],
3057,foobar,,shuffled,,K,,,,Z2WAkYpWiXwuGcdME,0.0-3.0-0.47,3,45,,"[519, 167, 145]",,,,"[{'role': 'speaker', 'text': 'begging triangle', 'playerId': 'R3cRgh4HmEtRsmQyp'}]",241062,,144,spr-buttons,reading,[],
3057,foobar,1066,shuffled,True,K,,,,Z2WAkYpWiXwuGcdME,0.0-3.0-1.47,3,45,0,[],K,,,"[{'role': 'speaker', 'text': 'begging triangle', 'playerId': 'R3cRgh4HmEtRsmQyp'}]",242129,,145,spr-buttons,selection,[],
3057,foobar,,shuffled,,K,,,,Z2WAkYpWiXwuGcdME,0.0-3.0-2.47,3,45,,[],,,,"[{'role': 'speaker', 'text': 'begging triangle', 'playerId': 'R3cRgh4HmEtRsmQyp'}]",243036,,146,spr-buttons,feedback,[],
3057,foobar,,shuffled,,A,,,,Z2WAkYpWiXwuGcdME,0.0-3.0-0.48,1,19,,"[469, 183, 149, 143, 147, 145, 147, 164, 108, 154, 141, 151, 141, 158, 145, 158, 339, 293, 166, 153, 156]",,,,"[{'role': 'speaker', 'text': 'guy with one foot on ground one foot in air but kind of two heads', 'playerId': 'R3cRgh4HmEtRsmQyp'}, {'role': 'speaker', 'text': 'not the karate kick guy', 'playerId': 'R3cRgh4HmEtRsmQyp'}]",246860,,147,spr-buttons,reading,[],
3057,foobar,1224,shuffled,True,A,,,,Z2WAkYpWiXwuGcdME,0.0-3.0-1.48,1,19,6,[],A,,,"[{'role': 'speaker', 'text': 'guy with one foot on ground one foot in air but kind of two heads', 'playerId': 'R3cRgh4HmEtRsmQyp'}, {'role': 'speaker', 'text': 'not the karate kick guy', 'playerId': 'R3cRgh4HmEtRsmQyp'}]",248084,,148,spr-buttons,selection,[],
3057,foobar,,shuffled,,A,,,,Z2WAkYpWiXwuGcdME,0.0-3.0-2.48,1,19,,[],,,,"[{'role': 'speaker', 'text': 'guy with one foot on ground one foot in air but kind of two heads', 'playerId': 'R3cRgh4HmEtRsmQyp'}, {'role': 'speaker', 'text': 'not the karate kick guy', 'playerId': 'R3cRgh4HmEtRsmQyp'}]",248991,,149,spr-buttons,feedback,[],
3057,foobar,,shuffled,,C,,,,Z2WAkYpWiXwuGcdME,0.0-3.0-0.49,1,12,,"[361, 170, 160, 154, 141, 132, 139, 154, 144, 145, 337, 164, 352, 172, 164, 272, 259]",,,,"[{'role': 'speaker', 'text': 'person with arms in the air and standing', 'playerId': 'R3cRgh4HmEtRsmQyp'}, {'role': 'speaker', 'text': 'not kneeling', 'playerId': 'R3cRgh4HmEtRsmQyp'}, {'role': 'listener', 'text': 'no feet', 'playerId': 'nt3EW7xXyRQqvDebf'}, {'role': 'speaker', 'text': 'no feet', 'playerId': 'R3cRgh4HmEtRsmQyp'}]",252421,,150,spr-buttons,reading,[],
3057,foobar,3597,shuffled,True,C,,,,Z2WAkYpWiXwuGcdME,0.0-3.0-1.49,1,12,9,[],C,,,"[{'role': 'speaker', 'text': 'person with arms in the air and standing', 'playerId': 'R3cRgh4HmEtRsmQyp'}, {'role': 'speaker', 'text': 'not kneeling', 'playerId': 'R3cRgh4HmEtRsmQyp'}, {'role': 'listener', 'text': 'no feet', 'playerId': 'nt3EW7xXyRQqvDebf'}, {'role': 'speaker', 'text': 'no feet', 'playerId': 'R3cRgh4HmEtRsmQyp'}]",256019,,151,spr-buttons,selection,[],
3057,foobar,,shuffled,,C,,,,Z2WAkYpWiXwuGcdME,0.0-3.0-2.49,1,12,,[],,,,"[{'role': 'speaker', 'text': 'person with arms in the air and standing', 'playerId': 'R3cRgh4HmEtRsmQyp'}, {'role': 'speaker', 'text': 'not kneeling', 'playerId': 'R3cRgh4HmEtRsmQyp'}, {'role': 'listener', 'text': 'no feet', 'playerId': 'nt3EW7xXyRQqvDebf'}, {'role': 'speaker', 'text': 'no feet', 'playerId': 'R3cRgh4HmEtRsmQyp'}]",256925,,152,spr-buttons,feedback,[],
3057,foobar,,shuffled,,B,,,,Z2WAkYpWiXwuGcdME,0.0-3.0-0.50,3,39,,"[471, 166, 163, 173]",,,,"[{'role': 'speaker', 'text': 'arms air kneeling', 'playerId': 'R3cRgh4HmEtRsmQyp'}]",257906,,153,spr-buttons,reading,[],
3057,foobar,1846,shuffled,True,B,,,,Z2WAkYpWiXwuGcdME,0.0-3.0-1.50,3,39,3,[],B,,,"[{'role': 'speaker', 'text': 'arms air kneeling', 'playerId': 'R3cRgh4HmEtRsmQyp'}]",259752,,154,spr-buttons,selection,[],
3057,foobar,,shuffled,,B,,,,Z2WAkYpWiXwuGcdME,0.0-3.0-2.50,3,39,,[],,,,"[{'role': 'speaker', 'text': 'arms air kneeling', 'playerId': 'R3cRgh4HmEtRsmQyp'}]",260657,,155,spr-buttons,feedback,[],
3057,foobar,,shuffled,,J,,,,Z2WAkYpWiXwuGcdME,0.0-3.0-0.51,4,49,,"[445, 174]",,,,"[{'role': 'speaker', 'text': 'rectangle', 'playerId': 'R3cRgh4HmEtRsmQyp'}]",261283,,156,spr-buttons,reading,[],
3057,foobar,1658,shuffled,True,J,,,,Z2WAkYpWiXwuGcdME,0.0-3.0-1.51,4,49,7,[],J,,,"[{'role': 'speaker', 'text': 'rectangle', 'playerId': 'R3cRgh4HmEtRsmQyp'}]",262942,,157,spr-buttons,selection,[],
3057,foobar,,shuffled,,J,,,,Z2WAkYpWiXwuGcdME,0.0-3.0-2.51,4,49,,[],,,,"[{'role': 'speaker', 'text': 'rectangle', 'playerId': 'R3cRgh4HmEtRsmQyp'}]",263850,,158,spr-buttons,feedback,[],
3057,foobar,,shuffled,,E,,,,Z2WAkYpWiXwuGcdME,0.0-3.0-0.52,3,36,,"[528, 154, 145]",,,,"[{'role': 'speaker', 'text': 'triangle bunny', 'playerId': 'R3cRgh4HmEtRsmQyp'}]",264685,,159,spr-buttons,reading,[],
3057,foobar,1272,shuffled,True,E,,,,Z2WAkYpWiXwuGcdME,0.0-3.0-1.52,3,36,8,[],E,,,"[{'role': 'speaker', 'text': 'triangle bunny', 'playerId': 'R3cRgh4HmEtRsmQyp'}]",265957,,160,spr-buttons,selection,[],
3057,foobar,,shuffled,,E,,,,Z2WAkYpWiXwuGcdME,0.0-3.0-2.52,3,36,,[],,,,"[{'role': 'speaker', 'text': 'triangle bunny', 'playerId': 'R3cRgh4HmEtRsmQyp'}]",266863,,161,spr-buttons,feedback,[],
3057,foobar,,shuffled,,H,,,,Z2WAkYpWiXwuGcdME,0.0-3.0-0.53,4,52,,"[346, 150]",,,,"[{'role': 'speaker', 'text': 'limbless', 'playerId': 'R3cRgh4HmEtRsmQyp'}]",267371,,162,spr-buttons,reading,[],
3057,foobar,1571,shuffled,True,H,,,,Z2WAkYpWiXwuGcdME,0.0-3.0-1.53,4,52,11,[],H,,,"[{'role': 'speaker', 'text': 'limbless', 'playerId': 'R3cRgh4HmEtRsmQyp'}]",268944,,163,spr-buttons,selection,[],
3057,foobar,,shuffled,,H,,,,Z2WAkYpWiXwuGcdME,0.0-3.0-2.53,4,52,,[],,,,"[{'role': 'speaker', 'text': 'limbless', 'playerId': 'R3cRgh4HmEtRsmQyp'}]",269850,,164,spr-buttons,feedback,[],
3057,foobar,,shuffled,,F,,,,Z2WAkYpWiXwuGcdME,0.0-3.0-0.54,1,20,,"[406, 156, 147, 143, 142, 139, 141, 346, 399, 160, 172, 107, 394]",,,,"[{'role': 'speaker', 'text': 'guy lying sitting down facing left', 'playerId': 'R3cRgh4HmEtRsmQyp'}, {'role': 'speaker', 'text': 'looking kind of sad, head down', 'playerId': 'R3cRgh4HmEtRsmQyp'}]",272712,,165,spr-buttons,reading,[],
3057,foobar,1702,shuffled,True,F,,,,Z2WAkYpWiXwuGcdME,0.0-3.0-1.54,1,20,5,[],F,,,"[{'role': 'speaker', 'text': 'guy lying sitting down facing left', 'playerId': 'R3cRgh4HmEtRsmQyp'}, {'role': 'speaker', 'text': 'looking kind of sad, head down', 'playerId': 'R3cRgh4HmEtRsmQyp'}]",274415,,166,spr-buttons,selection,[],
3057,foobar,,shuffled,,F,,,,Z2WAkYpWiXwuGcdME,0.0-3.0-2.54,1,20,,[],,,,"[{'role': 'speaker', 'text': 'guy lying sitting down facing left', 'playerId': 'R3cRgh4HmEtRsmQyp'}, {'role': 'speaker', 'text': 'looking kind of sad, head down', 'playerId': 'R3cRgh4HmEtRsmQyp'}]",275322,,167,spr-buttons,feedback,[],
3057,foobar,,shuffled,,A,,,,Z2WAkYpWiXwuGcdME,0.0-3.0-0.55,0,8,,"[414, 193, 168, 444, 259, 193, 175, 213, 240, 181, 217, 204, 184, 179, 431, 178, 164, 134, 310, 1772, 159, 179, 180, 156, 146, 136, 146, 144, 147, 169, 131, 276, 183, 304, 179, 189, 207]",,,,"[{'role': 'speaker', 'text': ""This kind of looks like a guy with two feet pointing in the opposite direction to the 'head'"", 'playerId': 'R3cRgh4HmEtRsmQyp'}, {'role': 'listener', 'text': 'uhhh standing or kneeling', 'playerId': 'nt3EW7xXyRQqvDebf'}, {'role': 'speaker', 'text': 'standing', 'playerId': 'R3cRgh4HmEtRsmQyp'}, {'role': 'speaker', 'text': ""it's got two quite defined feet"", 'playerId': 'R3cRgh4HmEtRsmQyp'}, {'role': 'speaker', 'text': 'one foot in the air', 'playerId': 'R3cRgh4HmEtRsmQyp'}]",284624,,168,spr-buttons,reading,[],
3057,foobar,947,shuffled,True,A,,,,Z2WAkYpWiXwuGcdME,0.0-3.0-1.55,0,8,6,[],A,,,"[{'role': 'speaker', 'text': ""This kind of looks like a guy with two feet pointing in the opposite direction to the 'head'"", 'playerId': 'R3cRgh4HmEtRsmQyp'}, {'role': 'listener', 'text': 'uhhh standing or kneeling', 'playerId': 'nt3EW7xXyRQqvDebf'}, {'role': 'speaker', 'text': 'standing', 'playerId': 'R3cRgh4HmEtRsmQyp'}, {'role': 'speaker', 'text': ""it's got two quite defined feet"", 'playerId': 'R3cRgh4HmEtRsmQyp'}, {'role': 'speaker', 'text': 'one foot in the air', 'playerId': 'R3cRgh4HmEtRsmQyp'}]",285572,,169,spr-buttons,selection,[],
3057,foobar,,shuffled,,A,,,,Z2WAkYpWiXwuGcdME,0.0-3.0-2.55,0,8,,[],,,,"[{'role': 'speaker', 'text': ""This kind of looks like a guy with two feet pointing in the opposite direction to the 'head'"", 'playerId': 'R3cRgh4HmEtRsmQyp'}, {'role': 'listener', 'text': 'uhhh standing or kneeling', 'playerId': 'nt3EW7xXyRQqvDebf'}, {'role': 'speaker', 'text': 'standing', 'playerId': 'R3cRgh4HmEtRsmQyp'}, {'role': 'speaker', 'text': ""it's got two quite defined feet"", 'playerId': 'R3cRgh4HmEtRsmQyp'}, {'role': 'speaker', 'text': 'one foot in the air', 'playerId': 'R3cRgh4HmEtRsmQyp'}]",286478,,170,spr-buttons,feedback,[],
3057,foobar,,shuffled,,C,,,,Z2WAkYpWiXwuGcdME,0.0-3.0-0.56,3,42,,"[623, 168, 154, 147]",,,,"[{'role': 'speaker', 'text': 'arm hair standing', 'playerId': 'R3cRgh4HmEtRsmQyp'}]",287577,,171,spr-buttons,reading,[],
3057,foobar,3463,shuffled,True,C,,,,Z2WAkYpWiXwuGcdME,0.0-3.0-1.56,3,42,9,[132],C,,,"[{'role': 'speaker', 'text': 'arm hair standing', 'playerId': 'R3cRgh4HmEtRsmQyp'}]",291041,,172,spr-buttons,selection,[],
3057,foobar,,shuffled,,C,,,,Z2WAkYpWiXwuGcdME,0.0-3.0-2.56,3,42,,[],,,,"[{'role': 'speaker', 'text': 'arm hair standing', 'playerId': 'R3cRgh4HmEtRsmQyp'}]",291948,,173,spr-buttons,feedback,[],
3057,foobar,,shuffled,,B,,,,Z2WAkYpWiXwuGcdME,0.0-3.0-0.57,0,6,,"[429, 176, 154, 148, 153, 152, 134, 136, 168, 158, 141, 176, 153, 190, 248, 165, 174, 137, 148, 191, 286, 122, 237, 210]",,,,"[{'role': 'speaker', 'text': 'it kind of looks like someone with their arms in the air again but this time kneeling', 'playerId': 'R3cRgh4HmEtRsmQyp'}, {'role': 'speaker', 'text': 'and facing right I would say', 'playerId': 'R3cRgh4HmEtRsmQyp'}]",296351,,174,spr-buttons,reading,[],
3057,foobar,1298,shuffled,True,B,,,,Z2WAkYpWiXwuGcdME,0.0-3.0-1.57,0,6,3,[],B,,,"[{'role': 'speaker', 'text': 'it kind of looks like someone with their arms in the air again but this time kneeling', 'playerId': 'R3cRgh4HmEtRsmQyp'}, {'role': 'speaker', 'text': 'and facing right I would say', 'playerId': 'R3cRgh4HmEtRsmQyp'}]",297649,,175,spr-buttons,selection,[],
3057,foobar,,shuffled,,B,,,,Z2WAkYpWiXwuGcdME,0.0-3.0-2.57,0,6,,[],,,,"[{'role': 'speaker', 'text': 'it kind of looks like someone with their arms in the air again but this time kneeling', 'playerId': 'R3cRgh4HmEtRsmQyp'}, {'role': 'speaker', 'text': 'and facing right I would say', 'playerId': 'R3cRgh4HmEtRsmQyp'}]",298556,,176,spr-buttons,feedback,[],
3057,foobar,,shuffled,,L,,,,Z2WAkYpWiXwuGcdME,0.0-3.0-0.58,5,65,,"[385, 170, 128, 305]",,,,"[{'role': 'speaker', 'text': 'beg no triangle', 'playerId': 'R3cRgh4HmEtRsmQyp'}]",299551,,177,spr-buttons,reading,[],
3057,foobar,1260,shuffled,True,L,,,,Z2WAkYpWiXwuGcdME,0.0-3.0-1.58,5,65,1,[],L,,,"[{'role': 'speaker', 'text': 'beg no triangle', 'playerId': 'R3cRgh4HmEtRsmQyp'}]",300811,,178,spr-buttons,selection,[],
3057,foobar,,shuffled,,L,,,,Z2WAkYpWiXwuGcdME,0.0-3.0-2.58,5,65,,[],,,,"[{'role': 'speaker', 'text': 'beg no triangle', 'playerId': 'R3cRgh4HmEtRsmQyp'}]",301720,,179,spr-buttons,feedback,[],
3057,foobar,,shuffled,,H,,,,Z2WAkYpWiXwuGcdME,0.0-3.0-0.59,0,2,,"[453, 173, 157, 143, 150, 123, 143, 130, 150, 166, 163, 151, 323, 347, 378, 188, 163, 357, 298, 156]",,,,"[{'role': 'speaker', 'text': 'looks like a person without legs kind of sat down with their bottom bit pointing right', 'playerId': 'R3cRgh4HmEtRsmQyp'}, {'role': 'speaker', 'text': 'no arms either', 'playerId': 'R3cRgh4HmEtRsmQyp'}]",306044,,180,spr-buttons,reading,[],
3057,foobar,4104,shuffled,True,H,,,,Z2WAkYpWiXwuGcdME,0.0-3.0-1.59,0,2,11,[],H,,,"[{'role': 'speaker', 'text': 'looks like a person without legs kind of sat down with their bottom bit pointing right', 'playerId': 'R3cRgh4HmEtRsmQyp'}, {'role': 'speaker', 'text': 'no arms either', 'playerId': 'R3cRgh4HmEtRsmQyp'}]",310148,,181,spr-buttons,selection,[],
3057,foobar,,shuffled,,H,,,,Z2WAkYpWiXwuGcdME,0.0-3.0-2.59,0,2,,[],,,,"[{'role': 'speaker', 'text': 'looks like a person without legs kind of sat down with their bottom bit pointing right', 'playerId': 'R3cRgh4HmEtRsmQyp'}, {'role': 'speaker', 'text': 'no arms either', 'playerId': 'R3cRgh4HmEtRsmQyp'}]",311142,,182,spr-buttons,feedback,[],
3057,foobar,,shuffled,,D,,,,Z2WAkYpWiXwuGcdME,0.0-3.0-0.60,3,38,,"[559, 179]",,,,"[{'role': 'speaker', 'text': 'letter', 'playerId': 'R3cRgh4HmEtRsmQyp'}]",311886,,183,spr-buttons,reading,[],
3057,foobar,1282,shuffled,True,D,,,,Z2WAkYpWiXwuGcdME,0.0-3.0-1.60,3,38,10,[],D,,,"[{'role': 'speaker', 'text': 'letter', 'playerId': 'R3cRgh4HmEtRsmQyp'}]",313170,,184,spr-buttons,selection,[],
3057,foobar,,shuffled,,D,,,,Z2WAkYpWiXwuGcdME,0.0-3.0-2.60,3,38,,[],,,,"[{'role': 'speaker', 'text': 'letter', 'playerId': 'R3cRgh4HmEtRsmQyp'}]",314076,,185,spr-buttons,feedback,[],
3057,foobar,,shuffled,,G,,,,Z2WAkYpWiXwuGcdME,0.0-3.0-0.61,5,67,,"[420, 166, 144]",,,,"[{'role': 'speaker', 'text': 'square bunny', 'playerId': 'R3cRgh4HmEtRsmQyp'}]",314813,,186,spr-buttons,reading,[],
3057,foobar,3163,shuffled,True,G,,,,Z2WAkYpWiXwuGcdME,0.0-3.0-1.61,5,67,2,[],G,,,"[{'role': 'speaker', 'text': 'square bunny', 'playerId': 'R3cRgh4HmEtRsmQyp'}]",317977,,187,spr-buttons,selection,[],
3057,foobar,,shuffled,,G,,,,Z2WAkYpWiXwuGcdME,0.0-3.0-2.61,5,67,,[],,,,"[{'role': 'speaker', 'text': 'square bunny', 'playerId': 'R3cRgh4HmEtRsmQyp'}]",318885,,188,spr-buttons,feedback,[],
3057,foobar,,shuffled,,H,,,,Z2WAkYpWiXwuGcdME,0.0-3.0-0.62,1,21,,"[1096, 152, 142, 142, 307]",,,,"[{'role': 'speaker', 'text': 'limbless guy sat down', 'playerId': 'R3cRgh4HmEtRsmQyp'}]",320730,,189,spr-buttons,reading,[],
3057,foobar,1173,shuffled,True,H,,,,Z2WAkYpWiXwuGcdME,0.0-3.0-1.62,1,21,11,[],H,,,"[{'role': 'speaker', 'text': 'limbless guy sat down', 'playerId': 'R3cRgh4HmEtRsmQyp'}]",321906,,190,spr-buttons,selection,[],
3057,foobar,,shuffled,,H,,,,Z2WAkYpWiXwuGcdME,0.0-3.0-2.62,1,21,,[],,,,"[{'role': 'speaker', 'text': 'limbless guy sat down', 'playerId': 'R3cRgh4HmEtRsmQyp'}]",322813,,191,spr-buttons,feedback,[],
3057,foobar,,shuffled,,D,,,,Z2WAkYpWiXwuGcdME,0.0-3.0-0.63,2,29,,"[528, 181]",,,,"[{'role': 'speaker', 'text': 'letter', 'playerId': 'R3cRgh4HmEtRsmQyp'}]",323530,,192,spr-buttons,reading,[],
3057,foobar,1219,shuffled,True,D,,,,Z2WAkYpWiXwuGcdME,0.0-3.0-1.63,2,29,10,[],D,,,"[{'role': 'speaker', 'text': 'letter', 'playerId': 'R3cRgh4HmEtRsmQyp'}]",324750,,193,spr-buttons,selection,[],
3057,foobar,,shuffled,,D,,,,Z2WAkYpWiXwuGcdME,0.0-3.0-2.63,2,29,,[],,,,"[{'role': 'speaker', 'text': 'letter', 'playerId': 'R3cRgh4HmEtRsmQyp'}]",325656,,194,spr-buttons,feedback,[],
3057,foobar,,shuffled,,C,,,,Z2WAkYpWiXwuGcdME,0.0-3.0-0.64,5,71,,"[402, 173, 158, 143]",,,,"[{'role': 'speaker', 'text': 'arm hair standing', 'playerId': 'R3cRgh4HmEtRsmQyp'}]",326538,,195,spr-buttons,reading,[],
3057,foobar,1142,shuffled,True,C,,,,Z2WAkYpWiXwuGcdME,0.0-3.0-1.64,5,71,9,[137],C,,,"[{'role': 'speaker', 'text': 'arm hair standing', 'playerId': 'R3cRgh4HmEtRsmQyp'}]",327682,,196,spr-buttons,selection,[],
3057,foobar,,shuffled,,C,,,,Z2WAkYpWiXwuGcdME,0.0-3.0-2.64,5,71,,[],,,,"[{'role': 'speaker', 'text': 'arm hair standing', 'playerId': 'R3cRgh4HmEtRsmQyp'}]",328589,,197,spr-buttons,feedback,[],
3057,foobar,,shuffled,,B,,,,Z2WAkYpWiXwuGcdME,0.0-3.0-0.65,4,59,,"[486, 178, 164, 165]",,,,"[{'role': 'speaker', 'text': 'arm air kneeling', 'playerId': 'R3cRgh4HmEtRsmQyp'}]",329591,,198,spr-buttons,reading,[],
3057,foobar,668,shuffled,False,B,,,,Z2WAkYpWiXwuGcdME,0.0-3.0-1.65,4,59,9,[],C,,,"[{'role': 'speaker', 'text': 'arm air kneeling', 'playerId': 'R3cRgh4HmEtRsmQyp'}]",330260,,199,spr-buttons,selection,[],
3057,foobar,,shuffled,,B,,,,Z2WAkYpWiXwuGcdME,0.0-3.0-2.65,4,59,,[],,,,"[{'role': 'speaker', 'text': 'arm air kneeling', 'playerId': 'R3cRgh4HmEtRsmQyp'}]",331167,,200,spr-buttons,feedback,[],
3057,foobar,,shuffled,,A,,,,Z2WAkYpWiXwuGcdME,0.0-3.0-0.66,4,51,,"[601, 165, 119]",,,,"[{'role': 'speaker', 'text': 'two head', 'playerId': 'R3cRgh4HmEtRsmQyp'}]",332064,,201,spr-buttons,reading,[],
3057,foobar,1212,shuffled,True,A,,,,Z2WAkYpWiXwuGcdME,0.0-3.0-1.66,4,51,6,[],A,,,"[{'role': 'speaker', 'text': 'two head', 'playerId': 'R3cRgh4HmEtRsmQyp'}]",333278,,202,spr-buttons,selection,[],
3057,foobar,,shuffled,,A,,,,Z2WAkYpWiXwuGcdME,0.0-3.0-2.66,4,51,,[],,,,"[{'role': 'speaker', 'text': 'two head', 'playerId': 'R3cRgh4HmEtRsmQyp'}]",334185,,203,spr-buttons,feedback,[],
3057,foobar,,shuffled,,I,,,,Z2WAkYpWiXwuGcdME,0.0-3.0-0.67,3,44,,"[318, 168]",,,,"[{'role': 'speaker', 'text': 'karate', 'playerId': 'R3cRgh4HmEtRsmQyp'}]",334679,,204,spr-buttons,reading,[],
3057,foobar,1181,shuffled,True,I,,,,Z2WAkYpWiXwuGcdME,0.0-3.0-1.67,3,44,4,[],I,,,"[{'role': 'speaker', 'text': 'karate', 'playerId': 'R3cRgh4HmEtRsmQyp'}]",335862,,205,spr-buttons,selection,[],
3057,foobar,,shuffled,,I,,,,Z2WAkYpWiXwuGcdME,0.0-3.0-2.67,3,44,,[],,,,"[{'role': 'speaker', 'text': 'karate', 'playerId': 'R3cRgh4HmEtRsmQyp'}]",336769,,206,spr-buttons,feedback,[],
3057,foobar,,shuffled,,H,,,,Z2WAkYpWiXwuGcdME,0.0-3.0-0.68,2,25,,"[449, 170]",,,,"[{'role': 'speaker', 'text': 'limbless', 'playerId': 'R3cRgh4HmEtRsmQyp'}]",337393,,207,spr-buttons,reading,[],
3057,foobar,1867,shuffled,True,H,,,,Z2WAkYpWiXwuGcdME,0.0-3.0-1.68,2,25,11,[],H,,,"[{'role': 'speaker', 'text': 'limbless', 'playerId': 'R3cRgh4HmEtRsmQyp'}]",339261,,208,spr-buttons,selection,[],
3057,foobar,,shuffled,,H,,,,Z2WAkYpWiXwuGcdME,0.0-3.0-2.68,2,25,,[],,,,"[{'role': 'speaker', 'text': 'limbless', 'playerId': 'R3cRgh4HmEtRsmQyp'}]",340169,,209,spr-buttons,feedback,[],
3057,foobar,,shuffled,,K,,,,Z2WAkYpWiXwuGcdME,0.0-3.0-0.69,4,50,,"[645, 184, 112]",,,,"[{'role': 'speaker', 'text': 'beg triangle', 'playerId': 'R3cRgh4HmEtRsmQyp'}]",341118,,210,spr-buttons,reading,[],
3057,foobar,2995,shuffled,True,K,,,,Z2WAkYpWiXwuGcdME,0.0-3.0-1.69,4,50,0,[],K,,,"[{'role': 'speaker', 'text': 'beg triangle', 'playerId': 'R3cRgh4HmEtRsmQyp'}]",344114,,211,spr-buttons,selection,[],
3057,foobar,,shuffled,,K,,,,Z2WAkYpWiXwuGcdME,0.0-3.0-2.69,4,50,,[],,,,"[{'role': 'speaker', 'text': 'beg triangle', 'playerId': 'R3cRgh4HmEtRsmQyp'}]",345022,,212,spr-buttons,feedback,[],
3057,foobar,,shuffled,,J,,,,Z2WAkYpWiXwuGcdME,0.0-3.0-0.70,5,63,,"[311, 156]",,,,"[{'role': 'speaker', 'text': 'rectangle', 'playerId': 'R3cRgh4HmEtRsmQyp'}]",345497,,213,spr-buttons,reading,[],
3057,foobar,1421,shuffled,True,J,,,,Z2WAkYpWiXwuGcdME,0.0-3.0-1.70,5,63,7,[],J,,,"[{'role': 'speaker', 'text': 'rectangle', 'playerId': 'R3cRgh4HmEtRsmQyp'}]",346919,,214,spr-buttons,selection,[],
3057,foobar,,shuffled,,J,,,,Z2WAkYpWiXwuGcdME,0.0-3.0-2.70,5,63,,[],,,,"[{'role': 'speaker', 'text': 'rectangle', 'playerId': 'R3cRgh4HmEtRsmQyp'}]",347825,,215,spr-buttons,feedback,[],
3057,foobar,,shuffled,,I,,,,Z2WAkYpWiXwuGcdME,0.0-3.0-0.71,2,24,,"[540, 170, 129]",,,,"[{'role': 'speaker', 'text': 'karate guy', 'playerId': 'R3cRgh4HmEtRsmQyp'}]",348669,,216,spr-buttons,reading,[],
3057,foobar,1108,shuffled,True,I,,,,Z2WAkYpWiXwuGcdME,0.0-3.0-1.71,2,24,4,[],I,,,"[{'role': 'speaker', 'text': 'karate guy', 'playerId': 'R3cRgh4HmEtRsmQyp'}]",349778,,217,spr-buttons,selection,[],
3057,foobar,,shuffled,,I,,,,Z2WAkYpWiXwuGcdME,0.0-3.0-2.71,2,24,,[],,,,"[{'role': 'speaker', 'text': 'karate guy', 'playerId': 'R3cRgh4HmEtRsmQyp'}]",350686,,218,spr-buttons,feedback,[],
3057,foobar,,,,,,,,,0.0-4.0,,,"{'other': '', 'errors': '', 'length': '', 'interface': '', 'understand': ''}",1552,,,,,352250,,219,survey-text,,,
3057,foobar,,,,,,,,,0.0-5.0,,,0,1023,,"<h2>Many thanks for participating!</h2><p>We are generally interested in how people form conventions, such as shared 'nicknames' for images. Here, we are studying when these shared 'nicknames' are understandable to people who were not part of the group that created the nickname.</p><h1>Press continue to be redirected to Prolific. </h1>",,,353275,,220,html-button-response,,,
3056,foobar,,,,,[],[],[],,0.0-0.0,,,,,,,True,,186,False,0,preload,,,
3056,foobar,,,,,,,,,0.0-1.0,,,0,24334,," <center><img width=""300px"" src=""assets/stanford.png"" /></center><div id=""legal""></br>By answering the following questions, you are participating in a study being performed by cognitive scientists in the Stanford Department of Psychology. If you have questions about this research, please contact us at  <a href=""mailto://languagecoglab@gmail.com.""> languagecoglab@gmail.com</a>. You must be at least 18 years old to participate. Your participation in this research is voluntary. You may decline to answer any or all of the following questions. You may decline further participation, at any time, without adverse consequences. Your anonymity is assured; the researchers who have requested your participation will not receive any personal information about you. </div></br>",,,24522,,1,html-button-response,,,
3056,foobar,,,,,,,,,0.0-2.0,,,0,11535,,"<h3>Please read these instructions carefully!</h3> </br><div id=""intro""> <p>In this task, you will see a <b>transcript of a conversation</b> some previous participants had where a <b>speaker identified one of the images to some listeners</b>.</p><p>Your goal is to <b>read the transcript</b> and <b>figure out which image</b> is being described! </p><p>You will <b>read the transcript word-by-word, pressing SPACEBAR to reveal each word.</b>  When you have finished reading, you will <b>click the image</b> you think is being described.  Then you will <b>find out if your selection is correct</b>.<p><center><img width=""600px"" src=""assets/demo2.png"" /></center></br><p>You will see <b>72 trials</b>. The image choices will be the same on each trial, and the descriptions will all be from the same group of participants.</p> <p>Some of the transcripts may be much shorter or longer than others. Some of the descriptions may be hard to understand -- just take a guess if you are not sure.</p><p>You will get a bonus of <b>5 cents</b> for each image you get right! </p><p> <b>Note:</b> These descriptions came from real people and may contain inappropriate or offensive language. If you find a description inappropriate, please let us know via Prolific message or in the exit survey, so we can filter it out in the future.</p>",,,36058,,2,html-button-response,,,
3056,foobar,,yoked,,K,,,,rSMFkjhskBteiyQMB,0.0-3.0-0.0,0,0,,"[910, 380, 302, 301, 365, 302, 377, 343, 338, 362, 526, 588, 669, 5292, 423, 272, 213, 172, 412, 241, 228, 279]",,,,"[{'role': 'speaker', 'text': 'triangle at the bottom, right angled triangle above, 2 rotated squares on top of that They are touching on their points', 'playerId': 'PzsrjpFbCRkuAMq8B'}]",49368,,3,spr-buttons,reading,[],
3056,foobar,21498,yoked,False,K,,,,rSMFkjhskBteiyQMB,0.0-3.0-1.0,0,0,5,[],C,,,"[{'role': 'speaker', 'text': 'triangle at the bottom, right angled triangle above, 2 rotated squares on top of that They are touching on their points', 'playerId': 'PzsrjpFbCRkuAMq8B'}]",70868,,4,spr-buttons,selection,[],
3056,foobar,,yoked,,K,,,,rSMFkjhskBteiyQMB,0.0-3.0-2.0,0,0,,[],,,,"[{'role': 'speaker', 'text': 'triangle at the bottom, right angled triangle above, 2 rotated squares on top of that They are touching on their points', 'playerId': 'PzsrjpFbCRkuAMq8B'}]",71774,,5,spr-buttons,feedback,[],
3056,foobar,,yoked,,F,,,,rSMFkjhskBteiyQMB,0.0-3.0-0.1,0,1,,"[835, 346, 153, 157, 154, 149, 165, 146, 899, 224, 242, 293, 226, 217, 261, 891, 365, 380, 399, 477, 1204, 321, 315, 213, 433, 457, 356, 292, 271, 282, 715, 282, 260, 255, 220, 190, 246, 265, 299, 288, 468, 321, 328, 261, 338, 932, 933, 271, 269, 285]",,,,"[{'role': 'speaker', 'text': 'This one looks like a person sat down Their head is a rotated square', 'playerId': 'PzsrjpFbCRkuAMq8B'}, {'role': 'listener', 'text': 'do they have bunny ears', 'playerId': 'ZvhRyXkvKz6ES5HwX'}, {'role': 'listener', 'text': 'or knee up', 'playerId': 'ZvhRyXkvKz6ES5HwX'}, {'role': 'listener', 'text': 'sat down with legs out', 'playerId': 'ZGADNAezcCdtejsh5'}, {'role': 'speaker', 'text': 'They look as if they are sad so the head is tilted down', 'playerId': 'PzsrjpFbCRkuAMq8B'}, {'role': 'speaker', 'text': '1 knee up no bunny ears', 'playerId': 'PzsrjpFbCRkuAMq8B'}]",90351,,6,spr-buttons,reading,[],
3056,foobar,1187,yoked,True,F,,,,rSMFkjhskBteiyQMB,0.0-3.0-1.1,0,1,8,[],F,,,"[{'role': 'speaker', 'text': 'This one looks like a person sat down Their head is a rotated square', 'playerId': 'PzsrjpFbCRkuAMq8B'}, {'role': 'listener', 'text': 'do they have bunny ears', 'playerId': 'ZvhRyXkvKz6ES5HwX'}, {'role': 'listener', 'text': 'or knee up', 'playerId': 'ZvhRyXkvKz6ES5HwX'}, {'role': 'listener', 'text': 'sat down with legs out', 'playerId': 'ZGADNAezcCdtejsh5'}, {'role': 'speaker', 'text': 'They look as if they are sad so the head is tilted down', 'playerId': 'PzsrjpFbCRkuAMq8B'}, {'role': 'speaker', 'text': '1 knee up no bunny ears', 'playerId': 'PzsrjpFbCRkuAMq8B'}]",91538,,7,spr-buttons,selection,[],
3056,foobar,,yoked,,F,,,,rSMFkjhskBteiyQMB,0.0-3.0-2.1,0,1,,[],,,,"[{'role': 'speaker', 'text': 'This one looks like a person sat down Their head is a rotated square', 'playerId': 'PzsrjpFbCRkuAMq8B'}, {'role': 'listener', 'text': 'do they have bunny ears', 'playerId': 'ZvhRyXkvKz6ES5HwX'}, {'role': 'listener', 'text': 'or knee up', 'playerId': 'ZvhRyXkvKz6ES5HwX'}, {'role': 'listener', 'text': 'sat down with legs out', 'playerId': 'ZGADNAezcCdtejsh5'}, {'role': 'speaker', 'text': 'They look as if they are sad so the head is tilted down', 'playerId': 'PzsrjpFbCRkuAMq8B'}, {'role': 'speaker', 'text': '1 knee up no bunny ears', 'playerId': 'PzsrjpFbCRkuAMq8B'}]",92445,,8,spr-buttons,feedback,[],
3056,foobar,,yoked,,H,,,,rSMFkjhskBteiyQMB,0.0-3.0-0.2,0,2,,"[576, 314, 224, 372, 234, 213, 230, 271, 183, 164, 381, 229, 196, 255, 224, 243, 192, 264, 419, 336, 264, 206, 232, 332, 265, 243, 251, 235, 223, 875, 258, 191, 212, 170, 187, 166, 205, 340, 266]",,,,"[{'role': 'speaker', 'text': ""Looks like a letter 'i'"", 'playerId': 'PzsrjpFbCRkuAMq8B'}, {'role': 'listener', 'text': 'does it look like with its hand out or not', 'playerId': 'ZGADNAezcCdtejsh5'}, {'role': 'speaker', 'text': 'no hand it is just a head and a body', 'playerId': 'PzsrjpFbCRkuAMq8B'}, {'role': 'speaker', 'text': 'more like a baby that has been swaddled in a blanket', 'playerId': 'PzsrjpFbCRkuAMq8B'}]",103105,,9,spr-buttons,reading,[],
3056,foobar,928,yoked,True,H,,,,rSMFkjhskBteiyQMB,0.0-3.0-1.2,0,2,6,[],H,,,"[{'role': 'speaker', 'text': ""Looks like a letter 'i'"", 'playerId': 'PzsrjpFbCRkuAMq8B'}, {'role': 'listener', 'text': 'does it look like with its hand out or not', 'playerId': 'ZGADNAezcCdtejsh5'}, {'role': 'speaker', 'text': 'no hand it is just a head and a body', 'playerId': 'PzsrjpFbCRkuAMq8B'}, {'role': 'speaker', 'text': 'more like a baby that has been swaddled in a blanket', 'playerId': 'PzsrjpFbCRkuAMq8B'}]",104034,,10,spr-buttons,selection,[],
3056,foobar,,yoked,,H,,,,rSMFkjhskBteiyQMB,0.0-3.0-2.2,0,2,,[],,,,"[{'role': 'speaker', 'text': ""Looks like a letter 'i'"", 'playerId': 'PzsrjpFbCRkuAMq8B'}, {'role': 'listener', 'text': 'does it look like with its hand out or not', 'playerId': 'ZGADNAezcCdtejsh5'}, {'role': 'speaker', 'text': 'no hand it is just a head and a body', 'playerId': 'PzsrjpFbCRkuAMq8B'}, {'role': 'speaker', 'text': 'more like a baby that has been swaddled in a blanket', 'playerId': 'PzsrjpFbCRkuAMq8B'}]",104941,,11,spr-buttons,feedback,[],
3056,foobar,,yoked,,J,,,,rSMFkjhskBteiyQMB,0.0-3.0-0.3,0,3,,"[16744, 363, 195, 202, 193, 200, 199, 240, 178, 202, 157, 196, 275, 245, 242, 208, 216, 186, 203, 340, 255, 208, 193, 206, 209, 197, 211, 299, 201, 224, 183, 233, 237, 204, 178, 179, 203, 198]",,,,"[{'role': 'speaker', 'text': 'square rotated head The point is touching a straight line and that shape is not a regular shape It looks as if 1 arm is reaching out to the side', 'playerId': 'PzsrjpFbCRkuAMq8B'}, {'role': 'speaker', 'text': 'There appears to be a foot too', 'playerId': 'PzsrjpFbCRkuAMq8B'}]",129762,,12,spr-buttons,reading,[],
3056,foobar,990,yoked,False,J,,,,rSMFkjhskBteiyQMB,0.0-3.0-1.3,0,3,4,[191],D,,,"[{'role': 'speaker', 'text': 'square rotated head The point is touching a straight line and that shape is not a regular shape It looks as if 1 arm is reaching out to the side', 'playerId': 'PzsrjpFbCRkuAMq8B'}, {'role': 'speaker', 'text': 'There appears to be a foot too', 'playerId': 'PzsrjpFbCRkuAMq8B'}]",130753,,13,spr-buttons,selection,[],
3056,foobar,,yoked,,J,,,,rSMFkjhskBteiyQMB,0.0-3.0-2.3,0,3,,[],,,,"[{'role': 'speaker', 'text': 'square rotated head The point is touching a straight line and that shape is not a regular shape It looks as if 1 arm is reaching out to the side', 'playerId': 'PzsrjpFbCRkuAMq8B'}, {'role': 'speaker', 'text': 'There appears to be a foot too', 'playerId': 'PzsrjpFbCRkuAMq8B'}]",131658,,14,spr-buttons,feedback,[],
3056,foobar,,yoked,,D,,,,rSMFkjhskBteiyQMB,0.0-3.0-0.4,0,4,,"[1179, 247, 195, 177, 161, 178, 162, 152, 160, 158, 154, 151, 150, 164, 153, 166, 167, 165, 168, 155, 160, 196, 168, 186, 422, 313, 157, 158, 165, 162, 161, 167, 169, 179, 187, 171, 175, 171, 182, 175, 183, 178, 173, 174, 168, 175, 186, 183]",,,,"[{'role': 'speaker', 'text': 'This picture looks like a religious person giving a sermon speech They look as if they are holding a book to one side', 'playerId': 'PzsrjpFbCRkuAMq8B'}, {'role': 'listener', 'text': ""the 'I' but with hand out"", 'playerId': 'ZGADNAezcCdtejsh5'}, {'role': 'listener', 'text': 'are their knees bent a little', 'playerId': 'ZvhRyXkvKz6ES5HwX'}, {'role': 'speaker', 'text': 'no their knees are not bent they are straight', 'playerId': 'PzsrjpFbCRkuAMq8B'}]",141291,,15,spr-buttons,reading,[],
3056,foobar,1041,yoked,True,D,,,,rSMFkjhskBteiyQMB,0.0-3.0-1.4,0,4,4,[160],D,,,"[{'role': 'speaker', 'text': 'This picture looks like a religious person giving a sermon speech They look as if they are holding a book to one side', 'playerId': 'PzsrjpFbCRkuAMq8B'}, {'role': 'listener', 'text': ""the 'I' but with hand out"", 'playerId': 'ZGADNAezcCdtejsh5'}, {'role': 'listener', 'text': 'are their knees bent a little', 'playerId': 'ZvhRyXkvKz6ES5HwX'}, {'role': 'speaker', 'text': 'no their knees are not bent they are straight', 'playerId': 'PzsrjpFbCRkuAMq8B'}]",142333,,16,spr-buttons,selection,[],
3056,foobar,,yoked,,D,,,,rSMFkjhskBteiyQMB,0.0-3.0-2.4,0,4,,[],,,,"[{'role': 'speaker', 'text': 'This picture looks like a religious person giving a sermon speech They look as if they are holding a book to one side', 'playerId': 'PzsrjpFbCRkuAMq8B'}, {'role': 'listener', 'text': ""the 'I' but with hand out"", 'playerId': 'ZGADNAezcCdtejsh5'}, {'role': 'listener', 'text': 'are their knees bent a little', 'playerId': 'ZvhRyXkvKz6ES5HwX'}, {'role': 'speaker', 'text': 'no their knees are not bent they are straight', 'playerId': 'PzsrjpFbCRkuAMq8B'}]",143241,,17,spr-buttons,feedback,[],
3056,foobar,,yoked,,I,,,,rSMFkjhskBteiyQMB,0.0-3.0-0.5,0,5,,"[591, 165, 140, 188, 159, 170, 164, 148, 170, 157, 182, 171, 167, 175, 181, 162, 926, 193, 149, 3981, 195, 149, 163, 148, 162, 154, 165, 162, 159, 322, 177, 184, 172, 187, 184, 249, 222, 182, 184, 147, 182]",,,,"[{'role': 'speaker', 'text': 'Looks like someone ice skating', 'playerId': 'PzsrjpFbCRkuAMq8B'}, {'role': 'speaker', 'text': 'there arms are out in front of them and they have one leg lifted off the ground', 'playerId': 'PzsrjpFbCRkuAMq8B'}, {'role': 'listener', 'text': 'lowkey like a rooster too', 'playerId': 'ZvhRyXkvKz6ES5HwX'}, {'role': 'listener', 'text': 'with leg up at 90 degrees', 'playerId': 'ZGADNAezcCdtejsh5'}, {'role': 'speaker', 'text': 'yes to 90 degrees', 'playerId': 'PzsrjpFbCRkuAMq8B'}]",155447,,18,spr-buttons,reading,[],
3056,foobar,1233,yoked,True,I,,,,rSMFkjhskBteiyQMB,0.0-3.0-1.5,0,5,7,[],I,,,"[{'role': 'speaker', 'text': 'Looks like someone ice skating', 'playerId': 'PzsrjpFbCRkuAMq8B'}, {'role': 'speaker', 'text': 'there arms are out in front of them and they have one leg lifted off the ground', 'playerId': 'PzsrjpFbCRkuAMq8B'}, {'role': 'listener', 'text': 'lowkey like a rooster too', 'playerId': 'ZvhRyXkvKz6ES5HwX'}, {'role': 'listener', 'text': 'with leg up at 90 degrees', 'playerId': 'ZGADNAezcCdtejsh5'}, {'role': 'speaker', 'text': 'yes to 90 degrees', 'playerId': 'PzsrjpFbCRkuAMq8B'}]",156682,,19,spr-buttons,selection,[],
3056,foobar,,yoked,,I,,,,rSMFkjhskBteiyQMB,0.0-3.0-2.5,0,5,,[],,,,"[{'role': 'speaker', 'text': 'Looks like someone ice skating', 'playerId': 'PzsrjpFbCRkuAMq8B'}, {'role': 'speaker', 'text': 'there arms are out in front of them and they have one leg lifted off the ground', 'playerId': 'PzsrjpFbCRkuAMq8B'}, {'role': 'listener', 'text': 'lowkey like a rooster too', 'playerId': 'ZvhRyXkvKz6ES5HwX'}, {'role': 'listener', 'text': 'with leg up at 90 degrees', 'playerId': 'ZGADNAezcCdtejsh5'}, {'role': 'speaker', 'text': 'yes to 90 degrees', 'playerId': 'PzsrjpFbCRkuAMq8B'}]",157586,,20,spr-buttons,feedback,[],
3056,foobar,,yoked,,B,,,,rSMFkjhskBteiyQMB,0.0-3.0-0.6,0,6,,"[566, 170, 150, 160, 158, 164, 139, 157, 160, 161, 155, 156, 153, 177, 166, 141, 200, 166, 166, 167, 168, 168, 164, 159, 173, 168, 174, 163, 214, 168, 167, 158, 170, 176]",,,,"[{'role': 'speaker', 'text': ""Rotated square at the top, a triangle is touching it's point They are touching another triangle"", 'playerId': 'PzsrjpFbCRkuAMq8B'}, {'role': 'speaker', 'text': 'this picture looks like an animal sat down', 'playerId': 'PzsrjpFbCRkuAMq8B'}, {'role': 'listener', 'text': 'do the two triangles kind look like wings', 'playerId': 'o7s7B6kZLqvaG62N4'}]",163625,,21,spr-buttons,reading,[],
3056,foobar,4316,yoked,False,B,,,,rSMFkjhskBteiyQMB,0.0-3.0-1.6,0,6,3,[],E,,,"[{'role': 'speaker', 'text': ""Rotated square at the top, a triangle is touching it's point They are touching another triangle"", 'playerId': 'PzsrjpFbCRkuAMq8B'}, {'role': 'speaker', 'text': 'this picture looks like an animal sat down', 'playerId': 'PzsrjpFbCRkuAMq8B'}, {'role': 'listener', 'text': 'do the two triangles kind look like wings', 'playerId': 'o7s7B6kZLqvaG62N4'}]",167943,,22,spr-buttons,selection,[],
3056,foobar,,yoked,,B,,,,rSMFkjhskBteiyQMB,0.0-3.0-2.6,0,6,,[],,,,"[{'role': 'speaker', 'text': ""Rotated square at the top, a triangle is touching it's point They are touching another triangle"", 'playerId': 'PzsrjpFbCRkuAMq8B'}, {'role': 'speaker', 'text': 'this picture looks like an animal sat down', 'playerId': 'PzsrjpFbCRkuAMq8B'}, {'role': 'listener', 'text': 'do the two triangles kind look like wings', 'playerId': 'o7s7B6kZLqvaG62N4'}]",168849,,23,spr-buttons,feedback,[],
3056,foobar,,yoked,,L,,,,rSMFkjhskBteiyQMB,0.0-3.0-0.7,0,7,,"[2296, 196, 163, 147, 161, 167, 158, 162, 164, 166, 155, 157, 157, 155, 158, 163, 162, 170, 177]",,,,"[{'role': 'speaker', 'text': 'This looks like a person giving a speech from a book again but this time with knees bent', 'playerId': 'PzsrjpFbCRkuAMq8B'}]",174092,,24,spr-buttons,reading,[],
3056,foobar,6066,yoked,False,L,,,,rSMFkjhskBteiyQMB,0.0-3.0-1.7,0,7,1,[],K,,,"[{'role': 'speaker', 'text': 'This looks like a person giving a speech from a book again but this time with knees bent', 'playerId': 'PzsrjpFbCRkuAMq8B'}]",180159,,25,spr-buttons,selection,[],
3056,foobar,,yoked,,L,,,,rSMFkjhskBteiyQMB,0.0-3.0-2.7,0,7,,[],,,,"[{'role': 'speaker', 'text': 'This looks like a person giving a speech from a book again but this time with knees bent', 'playerId': 'PzsrjpFbCRkuAMq8B'}]",181065,,26,spr-buttons,feedback,[],
3058,foobar,,,,,[],[],[],,0.0-0.0,,,,,,,True,,11,False,0,preload,,,
3058,foobar,,,,,,,,,0.0-1.0,,,0,1425,," <center><img width=""300px"" src=""assets/stanford.png"" /></center><div id=""legal""></br>By answering the following questions, you are participating in a study being performed by cognitive scientists in the Stanford Department of Psychology. If you have questions about this research, please contact us at  <a href=""mailto://languagecoglab@gmail.com.""> languagecoglab@gmail.com</a>. You must be at least 18 years old to participate. Your participation in this research is voluntary. You may decline to answer any or all of the following questions. You may decline further participation, at any time, without adverse consequences. Your anonymity is assured; the researchers who have requested your participation will not receive any personal information about you. </div></br>",,,1438,,1,html-button-response,,,
3058,foobar,,,,,,,,,0.0-2.0,,,0,1597,,"<h3>Please read these instructions carefully!</h3> </br><div id=""intro""> <p>In this task, you will see a <b>transcript of a conversation</b> some previous participants had where a <b>speaker identified one of the images to some listeners</b>.</p><p>Your goal is to <b>read the transcript</b> and <b>figure out which image</b> is being described! </p><p>You will <b>read the transcript word-by-word, pressing SPACEBAR to reveal each word.</b>  When you have finished reading, you will <b>click the image</b> you think is being described.  Then you will <b>find out if your selection is correct</b>.<p><center><img width=""600px"" src=""assets/demo2.png"" /></center></br><p>You will see <b>72 trials</b>. The image choices will be the same on each trial, and the descriptions will all be from the same group of participants.</p> <p>Some of the transcripts may be much shorter or longer than others. Some of the descriptions may be hard to understand -- just take a guess if you are not sure.</p><p>You will get a bonus of <b>5 cents</b> for each image you get right! </p><p> <b>Note:</b> These descriptions came from real people and may contain inappropriate or offensive language. If you find a description inappropriate, please let us know via Prolific message or in the exit survey, so we can filter it out in the future.</p>",,,3038,,2,html-button-response,,,
3058,foobar,,yoked,,K,,,,zviCQXNM4xWoYTmoY,0.0-3.0-0.0,0,0,,"[822, 186, 165, 138, 181, 126, 281, 183, 160, 178, 320, 397, 341, 178, 166, 140, 163, 129, 171, 172, 128, 169, 141, 2172, 279, 175, 159, 156, 150, 301, 352, 360, 1177, 163, 155, 142, 138, 119, 160, 241, 310, 423, 148, 330, 130, 177, 333, 185, 148, 138]",,,,"[{'role': 'speaker', 'text': 'the picture looks like someone kneeling down on the floor and holding their hands out in front of them, feet sticking up behind them, elbows sticking out slightly behind their back', 'playerId': 'Q5Bs5Daz3vBi66sSW'}, {'role': 'listener', 'text': 'which way is the square on their head', 'playerId': 'XBjhcfLtesgASpEW2'}, {'role': 'listener', 'text': 'is it a diamond', 'playerId': 'XBjhcfLtesgASpEW2'}, {'role': 'speaker', 'text': 'yeah like a diamond', 'playerId': 'Q5Bs5Daz3vBi66sSW'}]",16836,,3,spr-buttons,reading,[],
3058,foobar,7174,yoked,True,K,,,,zviCQXNM4xWoYTmoY,0.0-3.0-1.0,0,0,7,[151],K,,,"[{'role': 'speaker', 'text': 'the picture looks like someone kneeling down on the floor and holding their hands out in front of them, feet sticking up behind them, elbows sticking out slightly behind their back', 'playerId': 'Q5Bs5Daz3vBi66sSW'}, {'role': 'listener', 'text': 'which way is the square on their head', 'playerId': 'XBjhcfLtesgASpEW2'}, {'role': 'listener', 'text': 'is it a diamond', 'playerId': 'XBjhcfLtesgASpEW2'}, {'role': 'speaker', 'text': 'yeah like a diamond', 'playerId': 'Q5Bs5Daz3vBi66sSW'}]",24013,,4,spr-buttons,selection,[],
3058,foobar,,yoked,,K,,,,zviCQXNM4xWoYTmoY,0.0-3.0-2.0,0,0,,[],,,,"[{'role': 'speaker', 'text': 'the picture looks like someone kneeling down on the floor and holding their hands out in front of them, feet sticking up behind them, elbows sticking out slightly behind their back', 'playerId': 'Q5Bs5Daz3vBi66sSW'}, {'role': 'listener', 'text': 'which way is the square on their head', 'playerId': 'XBjhcfLtesgASpEW2'}, {'role': 'listener', 'text': 'is it a diamond', 'playerId': 'XBjhcfLtesgASpEW2'}, {'role': 'speaker', 'text': 'yeah like a diamond', 'playerId': 'Q5Bs5Daz3vBi66sSW'}]",24926,,5,spr-buttons,feedback,[],
3058,foobar,,yoked,,B,,,,zviCQXNM4xWoYTmoY,0.0-3.0-0.1,0,1,,"[687, 193, 160, 151, 146, 144, 135, 150, 129, 124, 149, 123, 322, 228, 178, 315, 165, 161, 176, 156, 323, 164, 161, 130, 151, 192, 173, 179, 168, 192, 417, 149, 140, 372, 165, 148, 148, 128, 145, 327, 880, 176, 137, 139, 150, 340, 335, 399, 244, 177, 170, 169, 161, 159, 171, 174, 165, 166, 178, 125, 398, 284, 171, 167, 126]",,,,"[{'role': 'speaker', 'text': ""I guess it looks like a dog sitting down, with a big pointy face, a diamond on it's head and a triangle on the back of it's head"", 'playerId': 'Q5Bs5Daz3vBi66sSW'}, {'role': 'speaker', 'text': 'Hard to describe', 'playerId': 'Q5Bs5Daz3vBi66sSW'}, {'role': 'listener', 'text': 'is the base like a lightning bolt', 'playerId': 'XBjhcfLtesgASpEW2'}, {'role': 'listener', 'text': 'or is it a backwards l shape', 'playerId': 'XBjhcfLtesgASpEW2'}, {'role': 'speaker', 'text': ""the main body isn't a clear shape, but the diamond and triangle on the top are clear"", 'playerId': 'Q5Bs5Daz3vBi66sSW'}]",38695,,6,spr-buttons,reading,[],
3058,foobar,8440,yoked,True,B,,,,zviCQXNM4xWoYTmoY,0.0-3.0-1.1,0,1,11,[],B,,,"[{'role': 'speaker', 'text': ""I guess it looks like a dog sitting down, with a big pointy face, a diamond on it's head and a triangle on the back of it's head"", 'playerId': 'Q5Bs5Daz3vBi66sSW'}, {'role': 'speaker', 'text': 'Hard to describe', 'playerId': 'Q5Bs5Daz3vBi66sSW'}, {'role': 'listener', 'text': 'is the base like a lightning bolt', 'playerId': 'XBjhcfLtesgASpEW2'}, {'role': 'listener', 'text': 'or is it a backwards l shape', 'playerId': 'XBjhcfLtesgASpEW2'}, {'role': 'speaker', 'text': ""the main body isn't a clear shape, but the diamond and triangle on the top are clear"", 'playerId': 'Q5Bs5Daz3vBi66sSW'}]",47137,,7,spr-buttons,selection,[],
3058,foobar,,yoked,,B,,,,zviCQXNM4xWoYTmoY,0.0-3.0-2.1,0,1,,[],,,,"[{'role': 'speaker', 'text': ""I guess it looks like a dog sitting down, with a big pointy face, a diamond on it's head and a triangle on the back of it's head"", 'playerId': 'Q5Bs5Daz3vBi66sSW'}, {'role': 'speaker', 'text': 'Hard to describe', 'playerId': 'Q5Bs5Daz3vBi66sSW'}, {'role': 'listener', 'text': 'is the base like a lightning bolt', 'playerId': 'XBjhcfLtesgASpEW2'}, {'role': 'listener', 'text': 'or is it a backwards l shape', 'playerId': 'XBjhcfLtesgASpEW2'}, {'role': 'speaker', 'text': ""the main body isn't a clear shape, but the diamond and triangle on the top are clear"", 'playerId': 'Q5Bs5Daz3vBi66sSW'}]",48045,,8,spr-buttons,feedback,[],
3058,foobar,,yoked,,J,,,,zviCQXNM4xWoYTmoY,0.0-3.0-0.2,0,2,,"[339, 174, 138, 129, 144, 142, 137, 124, 150, 132, 143, 143, 143, 149, 148, 160, 148, 155, 145, 137]",,,,"[{'role': 'speaker', 'text': 'okay it has a straight left edge and a diamond on the top', 'playerId': 'Q5Bs5Daz3vBi66sSW'}, {'role': 'speaker', 'text': 'sort of like half a candle', 'playerId': 'Q5Bs5Daz3vBi66sSW'}]",51142,,9,spr-buttons,reading,[],
3058,foobar,1661,yoked,True,J,,,,zviCQXNM4xWoYTmoY,0.0-3.0-1.2,0,2,1,[],J,,,"[{'role': 'speaker', 'text': 'okay it has a straight left edge and a diamond on the top', 'playerId': 'Q5Bs5Daz3vBi66sSW'}, {'role': 'speaker', 'text': 'sort of like half a candle', 'playerId': 'Q5Bs5Daz3vBi66sSW'}]",52805,,10,spr-buttons,selection,[],
3058,foobar,,yoked,,J,,,,zviCQXNM4xWoYTmoY,0.0-3.0-2.2,0,2,,[],,,,"[{'role': 'speaker', 'text': 'okay it has a straight left edge and a diamond on the top', 'playerId': 'Q5Bs5Daz3vBi66sSW'}, {'role': 'speaker', 'text': 'sort of like half a candle', 'playerId': 'Q5Bs5Daz3vBi66sSW'}]",53712,,11,spr-buttons,feedback,[],
3058,foobar,,yoked,,C,,,,zviCQXNM4xWoYTmoY,0.0-3.0-0.3,0,3,,"[408, 156, 131, 133, 146, 164, 201, 160, 178, 183, 153, 149, 122, 144, 135]",,,,"[{'role': 'speaker', 'text': 'person leaning backwards with arms in the air', 'playerId': 'Q5Bs5Daz3vBi66sSW'}, {'role': 'listener', 'text': 'Is the body a parallelogram', 'playerId': 'SNKZcpXznSxMQbtXL'}]",56293,,12,spr-buttons,reading,[],
3058,foobar,1763,yoked,True,C,,,,zviCQXNM4xWoYTmoY,0.0-3.0-1.3,0,3,6,[128],C,,,"[{'role': 'speaker', 'text': 'person leaning backwards with arms in the air', 'playerId': 'Q5Bs5Daz3vBi66sSW'}, {'role': 'listener', 'text': 'Is the body a parallelogram', 'playerId': 'SNKZcpXznSxMQbtXL'}]",58059,,13,spr-buttons,selection,[],
3058,foobar,,yoked,,C,,,,zviCQXNM4xWoYTmoY,0.0-3.0-2.3,0,3,,[],,,,"[{'role': 'speaker', 'text': 'person leaning backwards with arms in the air', 'playerId': 'Q5Bs5Daz3vBi66sSW'}, {'role': 'listener', 'text': 'Is the body a parallelogram', 'playerId': 'SNKZcpXznSxMQbtXL'}]",59005,,14,spr-buttons,feedback,[],
3058,foobar,,yoked,,L,,,,zviCQXNM4xWoYTmoY,0.0-3.0-0.4,0,4,,"[483, 148, 217, 158, 176, 162, 188, 146, 153, 189, 113, 264, 177, 169, 153, 150, 287, 179, 163, 295, 296, 146, 214, 167, 185, 498]",,,,"[{'role': 'speaker', 'text': 'person bending their knees and holding hands out in front of them diamond head', 'playerId': 'Q5Bs5Daz3vBi66sSW'}, {'role': 'listener', 'text': 'same as before', 'playerId': 'XBjhcfLtesgASpEW2'}, {'role': 'speaker', 'text': 'just bending knees, not kneeling down', 'playerId': 'Q5Bs5Daz3vBi66sSW'}]",64501,,15,spr-buttons,reading,[],
3058,foobar,7897,yoked,True,L,,,,zviCQXNM4xWoYTmoY,0.0-3.0-1.4,0,4,2,[],L,,,"[{'role': 'speaker', 'text': 'person bending their knees and holding hands out in front of them diamond head', 'playerId': 'Q5Bs5Daz3vBi66sSW'}, {'role': 'listener', 'text': 'same as before', 'playerId': 'XBjhcfLtesgASpEW2'}, {'role': 'speaker', 'text': 'just bending knees, not kneeling down', 'playerId': 'Q5Bs5Daz3vBi66sSW'}]",72399,,16,spr-buttons,selection,[],
3058,foobar,,yoked,,L,,,,zviCQXNM4xWoYTmoY,0.0-3.0-2.4,0,4,,[],,,,"[{'role': 'speaker', 'text': 'person bending their knees and holding hands out in front of them diamond head', 'playerId': 'Q5Bs5Daz3vBi66sSW'}, {'role': 'listener', 'text': 'same as before', 'playerId': 'XBjhcfLtesgASpEW2'}, {'role': 'speaker', 'text': 'just bending knees, not kneeling down', 'playerId': 'Q5Bs5Daz3vBi66sSW'}]",73307,,17,spr-buttons,feedback,[],
3058,foobar,,yoked,,E,,,,zviCQXNM4xWoYTmoY,0.0-3.0-0.5,0,5,,"[403, 184, 149, 147, 155, 126, 150, 146, 166, 178, 165, 239, 218, 172, 197, 1589, 186, 153, 147, 138, 396, 458, 201, 169, 246, 215, 159, 186, 356, 183, 335, 174, 150, 130, 146, 292, 150, 133, 133]",,,,"[{'role': 'speaker', 'text': 'two triangles on the head', 'playerId': 'Q5Bs5Daz3vBi66sSW'}, {'role': 'listener', 'text': 'Triangle body too', 'playerId': 'SNKZcpXznSxMQbtXL'}, {'role': 'listener', 'text': 'looks like a bunny', 'playerId': 'xzEFcLxSaz7ZmqRw6'}, {'role': 'speaker', 'text': 'body is triangle', 'playerId': 'Q5Bs5Daz3vBi66sSW'}, {'role': 'listener', 'text': 'lightning bolt base', 'playerId': 'XBjhcfLtesgASpEW2'}, {'role': 'speaker', 'text': 'body looks like a mountain', 'playerId': 'Q5Bs5Daz3vBi66sSW'}, {'role': 'listener', 'text': 'yes like a triangle', 'playerId': 'XBjhcfLtesgASpEW2'}, {'role': 'listener', 'text': 'Small triangle for feet', 'playerId': '5J7qybS6Kinu3Cgrf'}]",82549,,18,spr-buttons,reading,[],
3058,foobar,3860,yoked,True,E,,,,zviCQXNM4xWoYTmoY,0.0-3.0-1.5,0,5,0,[],E,,,"[{'role': 'speaker', 'text': 'two triangles on the head', 'playerId': 'Q5Bs5Daz3vBi66sSW'}, {'role': 'listener', 'text': 'Triangle body too', 'playerId': 'SNKZcpXznSxMQbtXL'}, {'role': 'listener', 'text': 'looks like a bunny', 'playerId': 'xzEFcLxSaz7ZmqRw6'}, {'role': 'speaker', 'text': 'body is triangle', 'playerId': 'Q5Bs5Daz3vBi66sSW'}, {'role': 'listener', 'text': 'lightning bolt base', 'playerId': 'XBjhcfLtesgASpEW2'}, {'role': 'speaker', 'text': 'body looks like a mountain', 'playerId': 'Q5Bs5Daz3vBi66sSW'}, {'role': 'listener', 'text': 'yes like a triangle', 'playerId': 'XBjhcfLtesgASpEW2'}, {'role': 'listener', 'text': 'Small triangle for feet', 'playerId': '5J7qybS6Kinu3Cgrf'}]",86410,,19,spr-buttons,selection,[],
3058,foobar,,yoked,,E,,,,zviCQXNM4xWoYTmoY,0.0-3.0-2.5,0,5,,[],,,,"[{'role': 'speaker', 'text': 'two triangles on the head', 'playerId': 'Q5Bs5Daz3vBi66sSW'}, {'role': 'listener', 'text': 'Triangle body too', 'playerId': 'SNKZcpXznSxMQbtXL'}, {'role': 'listener', 'text': 'looks like a bunny', 'playerId': 'xzEFcLxSaz7ZmqRw6'}, {'role': 'speaker', 'text': 'body is triangle', 'playerId': 'Q5Bs5Daz3vBi66sSW'}, {'role': 'listener', 'text': 'lightning bolt base', 'playerId': 'XBjhcfLtesgASpEW2'}, {'role': 'speaker', 'text': 'body looks like a mountain', 'playerId': 'Q5Bs5Daz3vBi66sSW'}, {'role': 'listener', 'text': 'yes like a triangle', 'playerId': 'XBjhcfLtesgASpEW2'}, {'role': 'listener', 'text': 'Small triangle for feet', 'playerId': '5J7qybS6Kinu3Cgrf'}]",87319,,20,spr-buttons,feedback,[],
3058,foobar,,yoked,,G,,,,zviCQXNM4xWoYTmoY,0.0-3.0-0.6,0,6,,"[430, 204, 159, 157, 169, 162, 161, 315, 145, 138, 151, 233, 215, 201, 162, 303, 183, 405, 221, 206, 182, 306, 221, 141, 302, 225, 247, 193, 163, 324]",,,,"[{'role': 'speaker', 'text': ""erm like lots of weird shapes Doesn't look like anything"", 'playerId': 'Q5Bs5Daz3vBi66sSW'}, {'role': 'listener', 'text': 'Small triangle in bottom right', 'playerId': '5J7qybS6Kinu3Cgrf'}, {'role': 'speaker', 'text': 'flat base bottom left, diamond near the top, small triangle bottom right', 'playerId': 'Q5Bs5Daz3vBi66sSW'}]",93963,,21,spr-buttons,reading,[],
3058,foobar,1665,yoked,True,G,,,,zviCQXNM4xWoYTmoY,0.0-3.0-1.6,0,6,9,[],G,,,"[{'role': 'speaker', 'text': ""erm like lots of weird shapes Doesn't look like anything"", 'playerId': 'Q5Bs5Daz3vBi66sSW'}, {'role': 'listener', 'text': 'Small triangle in bottom right', 'playerId': '5J7qybS6Kinu3Cgrf'}, {'role': 'speaker', 'text': 'flat base bottom left, diamond near the top, small triangle bottom right', 'playerId': 'Q5Bs5Daz3vBi66sSW'}]",95630,,22,spr-buttons,selection,[],
3058,foobar,,yoked,,G,,,,zviCQXNM4xWoYTmoY,0.0-3.0-2.6,0,6,,[],,,,"[{'role': 'speaker', 'text': ""erm like lots of weird shapes Doesn't look like anything"", 'playerId': 'Q5Bs5Daz3vBi66sSW'}, {'role': 'listener', 'text': 'Small triangle in bottom right', 'playerId': '5J7qybS6Kinu3Cgrf'}, {'role': 'speaker', 'text': 'flat base bottom left, diamond near the top, small triangle bottom right', 'playerId': 'Q5Bs5Daz3vBi66sSW'}]",96540,,23,spr-buttons,feedback,[],
3058,foobar,,yoked,,A,,,,zviCQXNM4xWoYTmoY,0.0-3.0-0.7,0,7,,"[341, 170, 169, 308, 179, 153, 151, 164, 172, 281, 158, 151, 148, 160, 364, 139, 155, 152, 164, 151, 138, 147, 154, 166, 178, 351, 359, 359, 200, 173, 169, 185, 188, 187, 267, 322, 324, 211, 348, 189, 173, 164, 251, 393]",,,,"[{'role': 'speaker', 'text': 'like a person walking lifting one foot up, leaning head back a bit, holding a cloth in front of them', 'playerId': 'Q5Bs5Daz3vBi66sSW'}, {'role': 'listener', 'text': 'square on their back', 'playerId': 'XBjhcfLtesgASpEW2'}, {'role': 'speaker', 'text': 'lifting the foot up in front of them not behind', 'playerId': 'Q5Bs5Daz3vBi66sSW'}, {'role': 'listener', 'text': 'foot lifting up to the left', 'playerId': '5J7qybS6Kinu3Cgrf'}]",105998,,24,spr-buttons,reading,[],
3058,foobar,1917,yoked,True,A,,,,zviCQXNM4xWoYTmoY,0.0-3.0-1.7,0,7,5,[],A,,,"[{'role': 'speaker', 'text': 'like a person walking lifting one foot up, leaning head back a bit, holding a cloth in front of them', 'playerId': 'Q5Bs5Daz3vBi66sSW'}, {'role': 'listener', 'text': 'square on their back', 'playerId': 'XBjhcfLtesgASpEW2'}, {'role': 'speaker', 'text': 'lifting the foot up in front of them not behind', 'playerId': 'Q5Bs5Daz3vBi66sSW'}, {'role': 'listener', 'text': 'foot lifting up to the left', 'playerId': '5J7qybS6Kinu3Cgrf'}]",107915,,25,spr-buttons,selection,[],
3058,foobar,,yoked,,A,,,,zviCQXNM4xWoYTmoY,0.0-3.0-2.7,0,7,,[],,,,"[{'role': 'speaker', 'text': 'like a person walking lifting one foot up, leaning head back a bit, holding a cloth in front of them', 'playerId': 'Q5Bs5Daz3vBi66sSW'}, {'role': 'listener', 'text': 'square on their back', 'playerId': 'XBjhcfLtesgASpEW2'}, {'role': 'speaker', 'text': 'lifting the foot up in front of them not behind', 'playerId': 'Q5Bs5Daz3vBi66sSW'}, {'role': 'listener', 'text': 'foot lifting up to the left', 'playerId': '5J7qybS6Kinu3Cgrf'}]",108825,,26,spr-buttons,feedback,[],
3058,foobar,,yoked,,H,,,,zviCQXNM4xWoYTmoY,0.0-3.0-0.8,0,8,,"[422, 171, 173, 144, 140, 118, 160, 144, 155, 135, 151, 154, 139, 164, 144, 156, 168, 151, 156, 139, 157, 146, 170, 146, 163, 143, 191, 217, 180, 182, 165, 164, 210, 337, 177, 157, 149, 419]",,,,"[{'role': 'speaker', 'text': 'boring shape just one big shape and a diamond on top Like the candle one but not a flat top under the diamond', 'playerId': 'Q5Bs5Daz3vBi66sSW'}, {'role': 'listener', 'text': ""there's a triangle on the bottom right"", 'playerId': 'SNKZcpXznSxMQbtXL'}, {'role': 'speaker', 'text': 'yeah sticks out a bit', 'playerId': 'Q5Bs5Daz3vBi66sSW'}]",115601,,27,spr-buttons,reading,[],
3058,foobar,1903,yoked,True,H,,,,zviCQXNM4xWoYTmoY,0.0-3.0-1.8,0,8,4,[],H,,,"[{'role': 'speaker', 'text': 'boring shape just one big shape and a diamond on top Like the candle one but not a flat top under the diamond', 'playerId': 'Q5Bs5Daz3vBi66sSW'}, {'role': 'listener', 'text': ""there's a triangle on the bottom right"", 'playerId': 'SNKZcpXznSxMQbtXL'}, {'role': 'speaker', 'text': 'yeah sticks out a bit', 'playerId': 'Q5Bs5Daz3vBi66sSW'}]",117506,,28,spr-buttons,selection,[],
3058,foobar,,yoked,,H,,,,zviCQXNM4xWoYTmoY,0.0-3.0-2.8,0,8,,[],,,,"[{'role': 'speaker', 'text': 'boring shape just one big shape and a diamond on top Like the candle one but not a flat top under the diamond', 'playerId': 'Q5Bs5Daz3vBi66sSW'}, {'role': 'listener', 'text': ""there's a triangle on the bottom right"", 'playerId': 'SNKZcpXznSxMQbtXL'}, {'role': 'speaker', 'text': 'yeah sticks out a bit', 'playerId': 'Q5Bs5Daz3vBi66sSW'}]",118413,,29,spr-buttons,feedback,[],
3058,foobar,,yoked,,D,,,,zviCQXNM4xWoYTmoY,0.0-3.0-0.9,0,9,,"[397, 178, 159, 157, 158, 159, 167, 180, 166, 171, 178, 172, 194, 375, 359, 455, 165, 186, 269, 300, 188, 177, 148, 246, 321, 190, 182, 188]",,,,"[{'role': 'speaker', 'text': 'like a priest holding hands out little feet sticking out at the bottom', 'playerId': 'Q5Bs5Daz3vBi66sSW'}, {'role': 'listener', 'text': 'To the left', 'playerId': 'SNKZcpXznSxMQbtXL'}, {'role': 'listener', 'text': 'hands out to the left', 'playerId': 'xzEFcLxSaz7ZmqRw6'}, {'role': 'speaker', 'text': 'yeah facing left', 'playerId': 'Q5Bs5Daz3vBi66sSW'}]",124618,,30,spr-buttons,reading,[],
3058,foobar,1956,yoked,True,D,,,,zviCQXNM4xWoYTmoY,0.0-3.0-1.9,0,9,10,[],D,,,"[{'role': 'speaker', 'text': 'like a priest holding hands out little feet sticking out at the bottom', 'playerId': 'Q5Bs5Daz3vBi66sSW'}, {'role': 'listener', 'text': 'To the left', 'playerId': 'SNKZcpXznSxMQbtXL'}, {'role': 'listener', 'text': 'hands out to the left', 'playerId': 'xzEFcLxSaz7ZmqRw6'}, {'role': 'speaker', 'text': 'yeah facing left', 'playerId': 'Q5Bs5Daz3vBi66sSW'}]",126575,,31,spr-buttons,selection,[],
3058,foobar,,yoked,,D,,,,zviCQXNM4xWoYTmoY,0.0-3.0-2.9,0,9,,[],,,,"[{'role': 'speaker', 'text': 'like a priest holding hands out little feet sticking out at the bottom', 'playerId': 'Q5Bs5Daz3vBi66sSW'}, {'role': 'listener', 'text': 'To the left', 'playerId': 'SNKZcpXznSxMQbtXL'}, {'role': 'listener', 'text': 'hands out to the left', 'playerId': 'xzEFcLxSaz7ZmqRw6'}, {'role': 'speaker', 'text': 'yeah facing left', 'playerId': 'Q5Bs5Daz3vBi66sSW'}]",127482,,32,spr-buttons,feedback,[],
3058,foobar,,yoked,,F,,,,zviCQXNM4xWoYTmoY,0.0-3.0-0.10,0,10,,"[533, 161, 161, 160, 101, 182, 181, 174, 214, 197, 186, 162, 196, 232, 208, 168, 188, 191, 239, 232, 220, 180, 289, 197, 178, 263, 180, 354]",,,,"[{'role': 'speaker', 'text': 'person sitting down with legs out in front of them, facing left, head hanging forwards a bit', 'playerId': 'Q5Bs5Daz3vBi66sSW'}, {'role': 'listener', 'text': 'legs bent', 'playerId': 'XBjhcfLtesgASpEW2'}, {'role': 'listener', 'text': 'two triangles out the back or no', 'playerId': 'XBjhcfLtesgASpEW2'}]",133429,,33,spr-buttons,reading,[],
3058,foobar,5408,yoked,True,F,,,,zviCQXNM4xWoYTmoY,0.0-3.0-1.10,0,10,3,[],F,,,"[{'role': 'speaker', 'text': 'person sitting down with legs out in front of them, facing left, head hanging forwards a bit', 'playerId': 'Q5Bs5Daz3vBi66sSW'}, {'role': 'listener', 'text': 'legs bent', 'playerId': 'XBjhcfLtesgASpEW2'}, {'role': 'listener', 'text': 'two triangles out the back or no', 'playerId': 'XBjhcfLtesgASpEW2'}]",138839,,34,spr-buttons,selection,[],
3058,foobar,,yoked,,F,,,,zviCQXNM4xWoYTmoY,0.0-3.0-2.10,0,10,,[],,,,"[{'role': 'speaker', 'text': 'person sitting down with legs out in front of them, facing left, head hanging forwards a bit', 'playerId': 'Q5Bs5Daz3vBi66sSW'}, {'role': 'listener', 'text': 'legs bent', 'playerId': 'XBjhcfLtesgASpEW2'}, {'role': 'listener', 'text': 'two triangles out the back or no', 'playerId': 'XBjhcfLtesgASpEW2'}]",139784,,35,spr-buttons,feedback,[],
3058,foobar,,yoked,,I,,,,zviCQXNM4xWoYTmoY,0.0-3.0-0.11,0,11,,"[2183, 180, 203, 176, 233, 224, 205, 222, 304, 205, 388, 143, 237, 180, 317, 197, 184, 184, 276, 355]",,,,"[{'role': 'speaker', 'text': 'like an ice skater with two triangles sticking out to the left and a tiny one at the right', 'playerId': 'Q5Bs5Daz3vBi66sSW'}]",146392,,36,spr-buttons,reading,[],
3058,foobar,3448,yoked,True,I,,,,zviCQXNM4xWoYTmoY,0.0-3.0-1.11,0,11,8,[],I,,,"[{'role': 'speaker', 'text': 'like an ice skater with two triangles sticking out to the left and a tiny one at the right', 'playerId': 'Q5Bs5Daz3vBi66sSW'}]",149841,,37,spr-buttons,selection,[],
3058,foobar,,yoked,,I,,,,zviCQXNM4xWoYTmoY,0.0-3.0-2.11,0,11,,[],,,,"[{'role': 'speaker', 'text': 'like an ice skater with two triangles sticking out to the left and a tiny one at the right', 'playerId': 'Q5Bs5Daz3vBi66sSW'}]",150750,,38,spr-buttons,feedback,[],
3058,foobar,,yoked,,E,,,,zviCQXNM4xWoYTmoY,0.0-3.0-0.12,1,12,,"[487, 180, 138, 173, 146, 167, 151, 159, 321, 402, 179]",,,,"[{'role': 'speaker', 'text': 'the one with two triangles on the top', 'playerId': 'Q5Bs5Daz3vBi66sSW'}, {'role': 'listener', 'text': 'bunny', 'playerId': 'XBjhcfLtesgASpEW2'}]",153258,,39,spr-buttons,reading,[],
3058,foobar,2466,yoked,True,E,,,,zviCQXNM4xWoYTmoY,0.0-3.0-1.12,1,12,0,[],E,,,"[{'role': 'speaker', 'text': 'the one with two triangles on the top', 'playerId': 'Q5Bs5Daz3vBi66sSW'}, {'role': 'listener', 'text': 'bunny', 'playerId': 'XBjhcfLtesgASpEW2'}]",155726,,40,spr-buttons,selection,[],
3058,foobar,,yoked,,E,,,,zviCQXNM4xWoYTmoY,0.0-3.0-2.12,1,12,,[],,,,"[{'role': 'speaker', 'text': 'the one with two triangles on the top', 'playerId': 'Q5Bs5Daz3vBi66sSW'}, {'role': 'listener', 'text': 'bunny', 'playerId': 'XBjhcfLtesgASpEW2'}]",156633,,41,spr-buttons,feedback,[],
3058,foobar,,yoked,,F,,,,zviCQXNM4xWoYTmoY,0.0-3.0-0.13,1,13,,"[358, 170, 155, 234, 217, 177, 176, 155, 158, 170, 155]",,,,"[{'role': 'speaker', 'text': 'person sitting with legs out bent to the left again', 'playerId': 'Q5Bs5Daz3vBi66sSW'}]",158769,,42,spr-buttons,reading,[],
3058,foobar,1382,yoked,True,F,,,,zviCQXNM4xWoYTmoY,0.0-3.0-1.13,1,13,3,[],F,,,"[{'role': 'speaker', 'text': 'person sitting with legs out bent to the left again', 'playerId': 'Q5Bs5Daz3vBi66sSW'}]",160152,,43,spr-buttons,selection,[],
3058,foobar,,yoked,,F,,,,zviCQXNM4xWoYTmoY,0.0-3.0-2.13,1,13,,[],,,,"[{'role': 'speaker', 'text': 'person sitting with legs out bent to the left again', 'playerId': 'Q5Bs5Daz3vBi66sSW'}]",161061,,44,spr-buttons,feedback,[],
3058,foobar,,yoked,,G,,,,zviCQXNM4xWoYTmoY,0.0-3.0-0.14,1,14,,"[313, 180, 158, 153, 160, 193, 101, 211, 205, 339, 345, 394, 249, 332, 181, 172, 147, 161, 176, 232, 199, 170, 142, 334, 280, 188, 166, 175, 153, 176, 175, 355, 360, 204, 210, 268, 213, 206]",,,,"[{'role': 'speaker', 'text': ""the weird shapes again that doesn't look like anything small triangle in bottom right"", 'playerId': 'Q5Bs5Daz3vBi66sSW'}, {'role': 'listener', 'text': 'Flat bottom', 'playerId': '5J7qybS6Kinu3Cgrf'}, {'role': 'listener', 'text': ""like a seal balancing a ball on the back of it's head"", 'playerId': 'xzEFcLxSaz7ZmqRw6'}, {'role': 'speaker', 'text': 'yeah flat bottom to the left', 'playerId': 'Q5Bs5Daz3vBi66sSW'}]",169459,,45,spr-buttons,reading,[],
3058,foobar,2193,yoked,True,G,,,,zviCQXNM4xWoYTmoY,0.0-3.0-1.14,1,14,9,[],G,,,"[{'role': 'speaker', 'text': ""the weird shapes again that doesn't look like anything small triangle in bottom right"", 'playerId': 'Q5Bs5Daz3vBi66sSW'}, {'role': 'listener', 'text': 'Flat bottom', 'playerId': '5J7qybS6Kinu3Cgrf'}, {'role': 'listener', 'text': ""like a seal balancing a ball on the back of it's head"", 'playerId': 'xzEFcLxSaz7ZmqRw6'}, {'role': 'speaker', 'text': 'yeah flat bottom to the left', 'playerId': 'Q5Bs5Daz3vBi66sSW'}]",171654,,46,spr-buttons,selection,[],
3058,foobar,,yoked,,G,,,,zviCQXNM4xWoYTmoY,0.0-3.0-2.14,1,14,,[],,,,"[{'role': 'speaker', 'text': ""the weird shapes again that doesn't look like anything small triangle in bottom right"", 'playerId': 'Q5Bs5Daz3vBi66sSW'}, {'role': 'listener', 'text': 'Flat bottom', 'playerId': '5J7qybS6Kinu3Cgrf'}, {'role': 'listener', 'text': ""like a seal balancing a ball on the back of it's head"", 'playerId': 'xzEFcLxSaz7ZmqRw6'}, {'role': 'speaker', 'text': 'yeah flat bottom to the left', 'playerId': 'Q5Bs5Daz3vBi66sSW'}]",172562,,47,spr-buttons,feedback,[],
