workerid,proliferate.condition,button_rt,correct,correct_tangram,failed_audio,failed_images,failed_video,gameId,internal_node_id,response,rt,selected,stimulus,success,text,time_elapsed,timeout,trial_index,trial_type,type,word,error
3019,foobar,,,,[],[],[],,0.0-0.0,,,,,True,,54,False,0,preload,,,
3019,foobar,,,,,,,,0.0-1.0,0,4648,," <center><img width=""300px"" src=""assets/stanford.png"" /></center><div id=""legal""></br>By answering the following questions, you are participating in a study being performed by cognitive scientists in the Stanford Department of Psychology. If you have questions about this research, please contact us at  <a href=""mailto://languagecoglab@gmail.com.""> languagecoglab@gmail.com</a>.You must be at least 18 years old to participate. Your participation in this research is voluntary. You may decline to answer any or all of the following questions. You may decline further participation, at any time, without adverse consequences. Your anonymity is assured; the researchers who have requested your participation will not receive any personal information about you. </div></br>",,,4703,,1,html-button-response,,,
3019,foobar,,,,,,,,0.0-2.0,0,61466,,"<h3>Please read these instructions carefully!</h3> </br><div id=""intro""> <p>In this task, you will see a <b>transcript of a conversation</b> some previous participants had where a <b>speaker identified one of the images to some listeners</b>.</p></br><center><img width=""600px"" src=""assets/demo.png"" /></center></br><p>Your goal is to <b>read the transcript</b> and <b>figure out which image</b> is being described! </p><p>You will <b>click the image</b> you think is being described, and then you will <b>find out if you were right</b>.<p><p>You will see <b>64 trials</b>. The image choices will stay the same, but the transcripts will come from different groups of people. Some of the transcripts may be much shorter or longer than others. Some of the descriptions may be hard to understand -- just take a guess if you are not sure.</p><p>You will get a bonus of <b>5 cents</b> for each image you get right! </p><p> <b>Note:</b> These descriptions came from real people and may contain inappropriate or offensive language. If you find a description inappropriate, please let us know via Prolific message or in the exit survey, so we can filter it out in the future.</p>",,,66170,,2,html-button-response,,,
3019,foobar,44773,True,F,,,,omQAFChFFHAuAbPT3,0.0-3.0-0.0,4,[],F,,,"[{'role': 'speaker', 'text': 'Facing to the right, in sitting position', 'playerId': 'faazMWGBB5FbpcYAT'}, {'role': 'speaker', 'text': 'can see foot extended to the left, sorry character facing LEFT', 'playerId': 'faazMWGBB5FbpcYAT'}]",110945,,3,spr-buttons,selection,[],
3019,foobar,,,,,,,,0.0-3.0-1.0,,[],,,,,111853,,4,spr-buttons,feedback,[],
3019,foobar,5905,True,A,,,,5wn4MiopXyfXuTxG9,0.0-3.0-0.1,8,[],A,,,"[{'role': 'speaker', 'text': 'this figure looks like it is walking', 'playerId': 'HJoHFMvp6qPSD2pXk'}]",117759,,5,spr-buttons,selection,[],
3019,foobar,,,,,,,,0.0-3.0-1.1,,[],,,,,118664,,6,spr-buttons,feedback,[],
3019,foobar,16461,False,B,,,,BTbGhXZvjdSFubTBg,0.0-3.0-0.2,3,[],K,,,"[{'role': 'speaker', 'text': 'kneeling head forward feet showing', 'playerId': 'WXmyGwByDtSr3gTyk'}, {'role': 'speaker', 'text': 'praying', 'playerId': 'WXmyGwByDtSr3gTyk'}, {'role': 'listener', 'text': 'Bent knees', 'playerId': '9nyyLZ9PJhX7LnAx7'}, {'role': 'listener', 'text': 'Is he puking out a triangle', 'playerId': 'teS8cAZWPXbdKTZP4'}, {'role': 'speaker', 'text': 'triangle', 'playerId': 'WXmyGwByDtSr3gTyk'}, {'role': 'listener', 'text': 'To me that looks like someone in a kimono going ""SAFE"" like at a baseball game', 'playerId': '9nyyLZ9PJhX7LnAx7'}, {'role': 'listener', 'text': 'i can see that lol', 'playerId': 'j9qfbLnF9TpFABZaJ'}]",135126,,7,spr-buttons,selection,[],
3019,foobar,,,,,,,,0.0-3.0-1.2,,[],,,,,136034,,8,spr-buttons,feedback,[],
3019,foobar,7203,True,E,,,,tWcPGsuGdiD2J7Nrw,0.0-3.0-0.3,0,[],E,,,"[{'role': 'speaker', 'text': 'triangles for ears sitting against wall', 'playerId': '4ErRaLjLeCXS7EoC5'}]",143238,,9,spr-buttons,selection,[],
3019,foobar,,,,,,,,0.0-3.0-1.3,,[],,,,,144149,,10,spr-buttons,feedback,[],
3019,foobar,22475,True,I,,,,PCRgk3gvjjXXkMKqF,0.0-3.0-0.4,7,[],I,,,"[{'role': 'speaker', 'text': 'Man striking a pose, back leg up and pointing to the right Head is tilted square on two stacked triangles', 'playerId': 'HrxvJAFPtJCGLf2Ez'}, {'role': 'speaker', 'text': '*triangles', 'playerId': 'HrxvJAFPtJCGLf2Ez'}]",166624,,11,spr-buttons,selection,[],
3019,foobar,,,,,,,,0.0-3.0-1.4,,[],,,,,167533,,12,spr-buttons,feedback,[],
3019,foobar,5428,True,F,,,,3NRHD2hCEgJ74Q4b2,0.0-3.0-0.5,4,[],F,,,"[{'role': 'speaker', 'text': 'person sitting down facing left', 'playerId': 'eeCGATqzhP6qdRBP6'}]",172962,,13,spr-buttons,selection,[],
3019,foobar,,,,,,,,0.0-3.0-1.5,,[],,,,,173869,,14,spr-buttons,feedback,[],
3019,foobar,27311,True,D,,,,hu2zy5uGrN4qJ7qqe,0.0-3.0-0.6,5,[],D,,,"[{'role': 'speaker', 'text': ""arms and feet pointing left, looks like he's reading a book"", 'playerId': 'xwCpnpj4eoCiFYeCE'}, {'role': 'speaker', 'text': 'nothing on right side', 'playerId': 'xwCpnpj4eoCiFYeCE'}]",201182,,15,spr-buttons,selection,[],
3019,foobar,,,,,,,,0.0-3.0-1.6,,[],,,,,202085,,16,spr-buttons,feedback,[],
3019,foobar,8579,True,K,,,,8SNDsZXxLcR8895Lq,0.0-3.0-0.7,3,[],K,,,"[{'role': 'speaker', 'text': 'kneeling nun', 'playerId': '5Z84RxNyiQvR4MDQB'}]",210666,,17,spr-buttons,selection,[],
3019,foobar,,,,,,,,0.0-3.0-1.7,,[],,,,,211573,,18,spr-buttons,feedback,[],
3019,foobar,7743,True,F,,,,d3pirdbXLaHdgxR9t,0.0-3.0-0.8,4,[],F,,,"[{'role': 'speaker', 'text': 'person sitting on their bottom', 'playerId': 'YvaYGp3i8g88dxJR7'}]",219317,,19,spr-buttons,selection,[],
3019,foobar,,,,,,,,0.0-3.0-1.8,,[],,,,,220235,,20,spr-buttons,feedback,[],
3019,foobar,6515,True,C,,,,FfK5QXXSw833vwHKX,0.0-3.0-0.9,10,[],C,,,"[{'role': 'speaker', 'text': 'the guy is leaning left with his arms up kind of like ""but why""', 'playerId': '6iMbQKiFyJ2YwPaeo'}]",226752,,21,spr-buttons,selection,[],
3019,foobar,,,,,,,,0.0-3.0-1.9,,[],,,,,227659,,22,spr-buttons,feedback,[],
3019,foobar,7975,True,I,,,,4mKoevW3ykd2FDr7L,0.0-3.0-0.10,7,[],I,,,"[{'role': 'speaker', 'text': 'kick', 'playerId': 'vwpmmXPfWPvNcd9RA'}, {'role': 'speaker', 'text': '2 triangles on left', 'playerId': 'vwpmmXPfWPvNcd9RA'}, {'role': 'speaker', 'text': '2 triangles on left, back kick, one foot on ground', 'playerId': 'vwpmmXPfWPvNcd9RA'}]",235636,,23,spr-buttons,selection,[],
3019,foobar,,,,,,,,0.0-3.0-1.10,,[],,,,,236543,,24,spr-buttons,feedback,[],
3019,foobar,5584,True,A,,,,pAtG6vt3AyaJypa2j,0.0-3.0-0.11,8,[],A,,,"[{'role': 'speaker', 'text': 'looks like a person walking, one leg on the ground, the other leg is in the air and to the left', 'playerId': 'kNihCF3o2LNDkwQs5'}]",242128,,25,spr-buttons,selection,[],
3019,foobar,,,,,,,,0.0-3.0-1.11,,[],,,,,243036,,26,spr-buttons,feedback,[],
3019,foobar,6485,True,F,,,,FEPXqBHpf4Q5CfCju,0.0-3.0-0.12,4,[],F,,,"[{'role': 'speaker', 'text': 'sitting with leg to the left', 'playerId': 'KChzeps4GeL2rFbEh'}]",249522,,27,spr-buttons,selection,[],
3019,foobar,,,,,,,,0.0-3.0-1.12,,[],,,,,250429,,28,spr-buttons,feedback,[],
3019,foobar,12396,True,H,,,,pAtG6vt3AyaJypa2j,0.0-3.0-0.13,11,[],H,,,"[{'role': 'speaker', 'text': 'half hexagon left side of body', 'playerId': '3D7MbrSZL62xJBhib'}]",262826,,29,spr-buttons,selection,[],
3019,foobar,,,,,,,,0.0-3.0-1.13,,[],,,,,263735,,30,spr-buttons,feedback,[],
3019,foobar,8303,True,I,,,,6TPknLpCmx5X9X572,0.0-3.0-0.14,7,[],I,,,"[{'role': 'speaker', 'text': 'A person with triangles for his body ice skating', 'playerId': 'QdpCSDuYmuT3niXiK'}]",272038,,31,spr-buttons,selection,[],
3019,foobar,,,,,,,,0.0-3.0-1.14,,[],,,,,272948,,32,spr-buttons,feedback,[],
3019,foobar,4867,True,A,,,,YLCrDGMMiennGjggY,0.0-3.0-0.15,8,[],A,,,"[{'role': 'speaker', 'text': 'the sad person with strange head', 'playerId': '9KnsNqjRjt4q7CtbN'}, {'role': 'speaker', 'text': 'diamond on the back, left leg in the air', 'playerId': '9KnsNqjRjt4q7CtbN'}]",277816,,33,spr-buttons,selection,[],
3019,foobar,,,,,,,,0.0-3.0-1.15,,[],,,,,278735,,34,spr-buttons,feedback,[],
3019,foobar,5675,True,C,,,,vHHRDD5s36Ya2xGvS,0.0-3.0-0.16,10,[],C,,,"[{'role': 'speaker', 'text': 'Two hands to the top, half body', 'playerId': 'R7ioWHKEJCBidQWRz'}]",284411,,35,spr-buttons,selection,[],
3019,foobar,,,,,,,,0.0-3.0-1.16,,[],,,,,285315,,36,spr-buttons,feedback,[],
3019,foobar,27108,True,A,,,,AdiA5JEZBKJ4F5r4i,0.0-3.0-0.17,8,[],A,,,"[{'role': 'speaker', 'text': 'facing to the left, rhino, head back, arms up to the right, both legs facing left', 'playerId': 'Jm5k7ECi4X8Fbcv5Y'}]",312423,,37,spr-buttons,selection,[],
3019,foobar,,,,,,,,0.0-3.0-1.17,,[],,,,,313342,,38,spr-buttons,feedback,[],
3019,foobar,4226,True,I,,,,3QfyJMSuR6NqnvyjZ,0.0-3.0-0.18,7,[],I,,,"[{'role': 'speaker', 'text': 'ice skating to the left', 'playerId': 'da9qQSRFWpcgTxJHM'}]",317569,,39,spr-buttons,selection,[],
3019,foobar,,,,,,,,0.0-3.0-1.18,,[],,,,,318479,,40,spr-buttons,feedback,[],
3019,foobar,4472,True,F,,,,acL8Dhxe4PDAn42od,0.0-3.0-0.19,4,[],F,,,"[{'role': 'speaker', 'text': 'seated, facing left, knees bent, one foot showing', 'playerId': 'dsSQPa7CdRfAk5fn8'}, {'role': 'listener', 'text': 'tree dude', 'playerId': '62hdtatPoTPryWMMY'}, {'role': 'listener', 'text': 'leaning against tree guy', 'playerId': 'jtbZ4XfDnEkv55ut4'}, {'role': 'speaker', 'text': 'yes, tree dude', 'playerId': 'dsSQPa7CdRfAk5fn8'}, {'role': 'listener', 'text': 'Sad guy', 'playerId': 'FXYXhnXqQw4DFh5eo'}]",322952,,41,spr-buttons,selection,[],
3019,foobar,,,,,,,,0.0-3.0-1.19,,[],,,,,323858,,42,spr-buttons,feedback,[],
3019,foobar,43166,True,B,,,,awMBFij9Yo8w2nA5K,0.0-3.0-0.20,6,[],B,,,"[{'role': 'speaker', 'text': 'The one I said the left triangle looks like a tail', 'playerId': 'tFxPDpxwB3TJg5B8c'}, {'role': 'speaker', 'text': ""Diamond head The bottom point connects to the point of two different triangles The right one doesn't connect to anything The left one attaches to a pentagon base"", 'playerId': 'tFxPDpxwB3TJg5B8c'}]",367016,,43,spr-buttons,selection,[],
3019,foobar,,,,,,,,0.0-3.0-1.20,,[],,,,,367923,,44,spr-buttons,feedback,[],
3019,foobar,5677,False,H,,,,yf4vLYMpH9j84z98K,0.0-3.0-0.21,9,[],G,,,"[{'role': 'speaker', 'text': 'Looks like it is facing forward with one triangle at the bottom right', 'playerId': 'fRQb9DJBabAZCcAjY'}]",373601,,45,spr-buttons,selection,[],
3019,foobar,,,,,,,,0.0-3.0-1.21,,[],,,,,374507,,46,spr-buttons,feedback,[],
3019,foobar,4190,True,C,,,,6cWDb4KB2JkQYoEn8,0.0-3.0-0.22,10,[],C,,,"[{'role': 'speaker', 'text': 'flying angel, outstretched arms, going to the left', 'playerId': 'hMtbTjcXoP7mcPqWm'}]",378698,,47,spr-buttons,selection,[],
3019,foobar,,,,,,,,0.0-3.0-1.22,,[],,,,,379606,,48,spr-buttons,feedback,[],
3019,foobar,16090,False,L,,,,JnYAkqq7mqk9Gxdse,0.0-3.0-0.23,6,[],B,,,"[{'role': 'speaker', 'text': 'facing right **original** man praying', 'playerId': 'KgdEYahjHpGSFCw4r'}]",395697,,49,spr-buttons,selection,[],
3019,foobar,,,,,,,,0.0-3.0-1.23,,[],,,,,396606,,50,spr-buttons,feedback,[],
3019,foobar,24556,True,G,,,,MDLyuv29jevaGLSeT,0.0-3.0-0.24,9,[],G,,,"[{'role': 'speaker', 'text': 'almost laying down, body facing right with one hand high and one low and head hanging back', 'playerId': 'X8fyxirwxbpnvRKyy'}]",421173,,51,spr-buttons,selection,[],
3019,foobar,,,,,,,,0.0-3.0-1.24,,[],,,,,422095,,52,spr-buttons,feedback,[],
3019,foobar,21206,False,K,,,,LsnHGPbRLPabWRBSi,0.0-3.0-0.25,1,[],L,,,"[{'role': 'speaker', 'text': 'ok it looks like a woman in a dress praying', 'playerId': '8E5cNEk3uBc5sktkX'}, {'role': 'listener', 'text': 'Aimed right', 'playerId': '2RCjqweynJHvehBGo'}, {'role': 'speaker', 'text': 'facing right', 'playerId': '8E5cNEk3uBc5sktkX'}, {'role': 'listener', 'text': 'facing left', 'playerId': 'bhgdLERsJZsyygLSq'}, {'role': 'listener', 'text': 'Kneeling', 'playerId': '2RCjqweynJHvehBGo'}, {'role': 'listener', 'text': 'not the crouching one right', 'playerId': 'bohdK5Fufz9C4SewN'}, {'role': 'speaker', 'text': 'kneeling', 'playerId': '8E5cNEk3uBc5sktkX'}, {'role': 'listener', 'text': 'the one whose left side is like a rectangle', 'playerId': 'bhgdLERsJZsyygLSq'}, {'role': 'listener', 'text': 'it looks similar to the other praying one right', 'playerId': 'bohdK5Fufz9C4SewN'}, {'role': 'listener', 'text': 'or is it the one that looks like a swaddled baby', 'playerId': 'bhgdLERsJZsyygLSq'}, {'role': 'listener', 'text': 'Kneeling, arms to the right, upright', 'playerId': '2RCjqweynJHvehBGo'}, {'role': 'speaker', 'text': ""but it's a triangle"", 'playerId': '8E5cNEk3uBc5sktkX'}, {'role': 'speaker', 'text': 'but kinda a rectangle', 'playerId': '8E5cNEk3uBc5sktkX'}, {'role': 'speaker', 'text': 'her hands are straight out', 'playerId': '8E5cNEk3uBc5sktkX'}]",443303,,53,spr-buttons,selection,[],
3019,foobar,,,,,,,,0.0-3.0-1.25,,[],,,,,444213,,54,spr-buttons,feedback,[],
3019,foobar,10785,True,I,,,,2Csg2Snzrpkud2YRi,0.0-3.0-0.26,7,[],I,,,"[{'role': 'speaker', 'text': 'leaning on one foot to the left, with tail or other foot in the air on the right', 'playerId': 'DugA5xyi4CvXJWvaC'}]",454998,,55,spr-buttons,selection,[],
3019,foobar,,,,,,,,0.0-3.0-1.26,,[],,,,,455911,,56,spr-buttons,feedback,[],
3019,foobar,34397,False,B,,,,oXTMu3q59e3nffGz3,0.0-3.0-0.27,3,[],K,,,"[{'role': 'speaker', 'text': 'angel', 'playerId': 'LTS4YALfJnHNGsMfu'}, {'role': 'speaker', 'text': 'hera - seal has got a little tail flick on left side', 'playerId': 'LTS4YALfJnHNGsMfu'}]",490309,,57,spr-buttons,selection,[],
3019,foobar,,,,,,,,0.0-3.0-1.27,,[],,,,,491214,,58,spr-buttons,feedback,[],
3019,foobar,3043,True,I,,,,2928FF7GcrkeFiDkh,0.0-3.0-0.28,7,[],I,,,"[{'role': 'speaker', 'text': 'figure skater', 'playerId': '5L7PZWTLhnYMGQE8b'}]",494257,,59,spr-buttons,selection,[],
3019,foobar,,,,,,,,0.0-3.0-1.28,,[],,,,,495161,,60,spr-buttons,feedback,[],
3019,foobar,10088,False,L,,,,8vDbP6xD36MAFSAFC,0.0-3.0-0.29,6,[],B,,,"[{'role': 'speaker', 'text': 'kneeling facing right, both arms in one triangle to right, kneeling, feet behind as triangle', 'playerId': 'JPJgMw5EzQBQ6gw9a'}]",505250,,61,spr-buttons,selection,[],
3019,foobar,,,,,,,,0.0-3.0-1.29,,[],,,,,506169,,62,spr-buttons,feedback,[],
3019,foobar,8266,True,A,,,,Ccv6vkdmTr6cnNfC5,0.0-3.0-0.30,8,[],A,,,"[{'role': 'speaker', 'text': 'plague doctor, rock kicker', 'playerId': 'osdJLtm3pRz9sdzmK'}]",514436,,63,spr-buttons,selection,[],
3019,foobar,,,,,,,,0.0-3.0-1.30,,[],,,,,515346,,64,spr-buttons,feedback,[],
3019,foobar,9614,False,K,,,,BP9jqaXgDcqoupu9X,0.0-3.0-0.31,0,[],E,,,"[{'role': 'speaker', 'text': 'seated person facing right', 'playerId': 'MjgM5qp98eAX4zuZL'}]",524961,,65,spr-buttons,selection,[],
3019,foobar,,,,,,,,0.0-3.0-1.31,,[],,,,,525871,,66,spr-buttons,feedback,[],
3019,foobar,4330,True,I,,,,rSMFkjhskBteiyQMB,0.0-3.0-0.32,7,[],I,,,"[{'role': 'speaker', 'text': 'ice skater', 'playerId': 'PzsrjpFbCRkuAMq8B'}]",530202,,67,spr-buttons,selection,[],
3019,foobar,,,,,,,,0.0-3.0-1.32,,[],,,,,531109,,68,spr-buttons,feedback,[],
3019,foobar,31422,False,B,,,,iHNnNCnSAx2TYjDhf,0.0-3.0-0.33,9,[],G,,,"[{'role': 'speaker', 'text': '5', 'playerId': '2ub9Fg5YrCita2F2y'}]",562532,,69,spr-buttons,selection,[],
3019,foobar,,,,,,,,0.0-3.0-1.33,,[],,,,,563457,,70,spr-buttons,feedback,[],
3019,foobar,8331,True,J,,,,sijMDqp4oocvXG8Sv,0.0-3.0-0.34,2,[],J,,,"[{'role': 'speaker', 'text': 'squarish one', 'playerId': 'FQQrSsuYhM8jdKhTz'}]",571788,,71,spr-buttons,selection,[],
3019,foobar,,,,,,,,0.0-3.0-1.34,,[],,,,,572697,,72,spr-buttons,feedback,[],
3019,foobar,17613,False,G,,,,LfuChcnEB54q8Ztys,0.0-3.0-0.35,11,[],H,,,"[{'role': 'speaker', 'text': 'trapezoid at the bottom leaning right', 'playerId': 'Dr6TQXga6KydoDzMN'}]",590311,,73,spr-buttons,selection,[],
3019,foobar,,,,,,,,0.0-3.0-1.35,,[],,,,,591226,,74,spr-buttons,feedback,[],
3019,foobar,10280,False,B,,,,MM87KaCiwe9vRcvbi,0.0-3.0-0.36,9,[],G,,,"[{'role': 'speaker', 'text': 'bullhorn', 'playerId': '3DR3LKCnkxsbbDYdm'}]",601506,,75,spr-buttons,selection,[],
3019,foobar,,,,,,,,0.0-3.0-1.36,,[],,,,,602416,,76,spr-buttons,feedback,[],
3019,foobar,18223,True,J,,,,93ZvRh5AYPNeTJxjv,0.0-3.0-0.37,2,[],J,,,"[{'role': 'speaker', 'text': 'Straight back', 'playerId': 'dyTDDFiSuSCvwZD9b'}, {'role': 'speaker', 'text': 'triangle foot', 'playerId': 'dyTDDFiSuSCvwZD9b'}, {'role': 'speaker', 'text': 'to the right', 'playerId': 'dyTDDFiSuSCvwZD9b'}, {'role': 'listener', 'text': 'what position', 'playerId': 'EigvT8eA8dqhuxwk6'}, {'role': 'speaker', 'text': 'diamond head', 'playerId': 'dyTDDFiSuSCvwZD9b'}, {'role': 'speaker', 'text': 'standing', 'playerId': 'dyTDDFiSuSCvwZD9b'}, {'role': 'listener', 'text': 'straight edge on left Back', 'playerId': 'eJA6FpeTKabMYR8rb'}, {'role': 'listener', 'text': 'one triangle hand', 'playerId': '5a7w57CMsYw6nbJgN'}, {'role': 'speaker', 'text': 'left', 'playerId': 'dyTDDFiSuSCvwZD9b'}, {'role': 'speaker', 'text': 'one hand yes', 'playerId': 'dyTDDFiSuSCvwZD9b'}, {'role': 'listener', 'text': 'straight back', 'playerId': '5a7w57CMsYw6nbJgN'}]",620639,,77,spr-buttons,selection,[],
3019,foobar,,,,,,,,0.0-3.0-1.37,,[],,,,,621559,,78,spr-buttons,feedback,[],
3019,foobar,21478,False,B,,,,tN6MG8BtJwxfpi753,0.0-3.0-0.38,7,[],I,,,"[{'role': 'speaker', 'text': 'girl with triangle hair or angel', 'playerId': 'RT59wEgXZvCcKr8pw'}, {'role': 'speaker', 'text': 'triangle bottom left', 'playerId': 'RT59wEgXZvCcKr8pw'}, {'role': 'speaker', 'text': 'square head facing upwards', 'playerId': 'RT59wEgXZvCcKr8pw'}, {'role': 'speaker', 'text': 'arm pointed left', 'playerId': 'RT59wEgXZvCcKr8pw'}]",643037,,79,spr-buttons,selection,[],
3019,foobar,,,,,,,,0.0-3.0-1.38,,[],,,,,643947,,80,spr-buttons,feedback,[],
3019,foobar,7629,True,F,,,,rHhNxKwZ5tqhMuiAF,0.0-3.0-0.39,4,[],F,,,"[{'role': 'speaker', 'text': 'this one looks like a man sitting down', 'playerId': 'FavLJQrT3u2zqtypC'}, {'role': 'speaker', 'text': 'leg to the left', 'playerId': 'FavLJQrT3u2zqtypC'}, {'role': 'speaker', 'text': 'looks sad and sulking lol', 'playerId': 'FavLJQrT3u2zqtypC'}, {'role': 'listener', 'text': 'no arms', 'playerId': '8EtzDGtxpchtoMmvu'}, {'role': 'speaker', 'text': 'just sat there bored', 'playerId': 'FavLJQrT3u2zqtypC'}, {'role': 'speaker', 'text': 'no arms', 'playerId': 'FavLJQrT3u2zqtypC'}]",651577,,81,spr-buttons,selection,[],
3019,foobar,,,,,,,,0.0-3.0-1.39,,[],,,,,652486,,82,spr-buttons,feedback,[],
3019,foobar,4093,False,L,,,,xvPneq3RbziGdEArC,0.0-3.0-0.40,6,[],B,,,"[{'role': 'speaker', 'text': 'Squatting', 'playerId': 'yFk7LEDg8Edgyx5Gd'}]",656580,,83,spr-buttons,selection,[],
3019,foobar,,,,,,,,0.0-3.0-1.40,,[],,,,,657489,,84,spr-buttons,feedback,[],
3019,foobar,25101,True,F,,,,TZ9ci9hD9LaYzHaJY,0.0-3.0-0.41,4,[],F,,,"[{'role': 'speaker', 'text': 'on ground', 'playerId': 'GZh7aAvHM3rAtA2Hk'}, {'role': 'speaker', 'text': 'knees raised', 'playerId': 'GZh7aAvHM3rAtA2Hk'}, {'role': 'speaker', 'text': 'looking left', 'playerId': 'GZh7aAvHM3rAtA2Hk'}, {'role': 'listener', 'text': 'hands', 'playerId': 'yszfBdDaFb2xZH5aW'}, {'role': 'speaker', 'text': 'square head', 'playerId': 'GZh7aAvHM3rAtA2Hk'}, {'role': 'listener', 'text': 'head leaning forward', 'playerId': 'yszfBdDaFb2xZH5aW'}]",682590,,85,spr-buttons,selection,[],
3019,foobar,,,,,,,,0.0-3.0-1.41,,[],,,,,683500,,86,spr-buttons,feedback,[],
3019,foobar,10180,False,A,,,,Nh8nE8Qa4C3BkbhD6,0.0-3.0-0.42,3,[],K,,,"[{'role': 'speaker', 'text': 'monster', 'playerId': '5JEmHBEF2C5GGGZkJ'}]",693681,,87,spr-buttons,selection,[],
3019,foobar,,,,,,,,0.0-3.0-1.42,,[],,,,,694585,,88,spr-buttons,feedback,[],
3019,foobar,4086,True,E,,,,Tg2JqdT9ugXdkqWsC,0.0-3.0-0.43,0,[],E,,,"[{'role': 'speaker', 'text': 'This one looks like a a guy wearing a bunny head, square head, two triangles are ears looking down to the right', 'playerId': '7ZT3RAxSFjc39CDXe'}, {'role': 'speaker', 'text': 'Body is sitting down', 'playerId': '7ZT3RAxSFjc39CDXe'}, {'role': 'speaker', 'text': 'Or look for a square with two triangles on top', 'playerId': '7ZT3RAxSFjc39CDXe'}]",698671,,89,spr-buttons,selection,[],
3019,foobar,,,,,,,,0.0-3.0-1.43,,[],,,,,699583,,90,spr-buttons,feedback,[],
3019,foobar,13006,False,A,,,,G74GhYGrsaxrsfYxf,0.0-3.0-0.44,9,[],G,,,"[{'role': 'speaker', 'text': 'dinosaur carrying square on shoulder', 'playerId': 'G7t4KfQdMhBApqMvT'}]",712590,,91,spr-buttons,selection,[],
3019,foobar,,,,,,,,0.0-3.0-1.44,,[],,,,,713509,,92,spr-buttons,feedback,[],
3019,foobar,4078,False,G,,,,CNET4E5tvYW37ZevE,0.0-3.0-0.45,8,[],A,,,"[{'role': 'speaker', 'text': 'zombie', 'playerId': 'dxXnuyKwFTw4bdKd5'}]",717588,,93,spr-buttons,selection,[],
3019,foobar,,,,,,,,0.0-3.0-1.45,,[],,,,,718492,,94,spr-buttons,feedback,[],
3019,foobar,12175,True,H,,,,g6tPwYeFzT3Cer5qC,0.0-3.0-0.46,11,[],H,,,"[{'role': 'speaker', 'text': 'The person has a diamond head facing towards you with no arms or legs and looks like its in something', 'playerId': 'SyzxCSX67Gx4LQRg7'}]",730668,,95,spr-buttons,selection,[],
3019,foobar,,,,,,,,0.0-3.0-1.46,,[],,,,,731578,,96,spr-buttons,feedback,[],
3019,foobar,12617,True,C,,,,47tccL2hHpmjgZT8o,0.0-3.0-0.47,10,[],C,,,"[{'role': 'speaker', 'text': ""Okay so to make this quick, this quick, this was the first one, it's a Olympic RUNNER passaging the line but this time going left"", 'playerId': 'EvFdP2G2k6NiphcPW'}, {'role': 'speaker', 'text': 'they have both arms in the air like celebrating', 'playerId': 'EvFdP2G2k6NiphcPW'}, {'role': 'listener', 'text': 'and no legs', 'playerId': 'SrQC27xLPE3vw8aJF'}, {'role': 'speaker', 'text': 'No legs zuda', 'playerId': 'EvFdP2G2k6NiphcPW'}]",744196,,97,spr-buttons,selection,[],
3019,foobar,,,,,,,,0.0-3.0-1.47,,[],,,,,745103,,98,spr-buttons,feedback,[],
3019,foobar,11294,True,G,,,,2gkxKTcPdQews5qTX,0.0-3.0-0.48,9,[],G,,,"[{'role': 'speaker', 'text': 'Looks like a shoe with the heel on the right hand side slightly off the ground', 'playerId': 'CnKiQ7iNGKke5E9dt'}]",756398,,99,spr-buttons,selection,[],
3019,foobar,,,,,,,,0.0-3.0-1.48,,[],,,,,757314,,100,spr-buttons,feedback,[],
3019,foobar,13946,True,J,,,,znKKpRy5yMqbmRwJs,0.0-3.0-0.49,2,[],J,,,"[{'role': 'speaker', 'text': 'Unfinished rectangle on bottom, box on top in diamond shape', 'playerId': 'BvaPCcwnMZiHzHzcz'}]",771261,,101,spr-buttons,selection,[],
3019,foobar,,,,,,,,0.0-3.0-1.49,,[],,,,,772170,,102,spr-buttons,feedback,[],
3019,foobar,5633,True,F,,,,TY9mhHQpa4R5Q5K6H,0.0-3.0-0.50,4,[],F,,,"[{'role': 'speaker', 'text': 'This one looks like a person sat down with their legs pointing to the left', 'playerId': 'wY2uEhHeSSCPuaAb5'}, {'role': 'listener', 'text': 'bent knees', 'playerId': 'P5mFFBLCywApLr7JJ'}, {'role': 'speaker', 'text': 'It kind of looks like bent knees', 'playerId': 'wY2uEhHeSSCPuaAb5'}, {'role': 'listener', 'text': 'feet balanced on their heels', 'playerId': 'zwiWDYioyEXwPuR3b'}, {'role': 'listener', 'text': 'sitting flat', 'playerId': 'gvqNf3uLkqD94uha2'}, {'role': 'speaker', 'text': 'Yes feet on heels!', 'playerId': 'wY2uEhHeSSCPuaAb5'}]",777803,,103,spr-buttons,selection,[],
3019,foobar,,,,,,,,0.0-3.0-1.50,,[],,,,,778712,,104,spr-buttons,feedback,[],
3019,foobar,4454,True,I,,,,AdiA5JEZBKJ4F5r4i,0.0-3.0-0.51,7,[],I,,,"[{'role': 'speaker', 'text': 'looks like someone figure skating or ice skating facing the left with their leg sticking out on the right', 'playerId': 'H75FkJDCL8W22MQFt'}]",783167,,105,spr-buttons,selection,[],
3019,foobar,,,,,,,,0.0-3.0-1.51,,[],,,,,784081,,106,spr-buttons,feedback,[],
3019,foobar,6010,True,C,,,,wPKShK8DJjFJDPPC2,0.0-3.0-0.52,10,[],C,,,"[{'role': 'speaker', 'text': 'Man asking what is happening with arms outstretched', 'playerId': '7873fQ46q5WbGoifc'}]",790091,,107,spr-buttons,selection,[],
3019,foobar,,,,,,,,0.0-3.0-1.52,,[],,,,,791011,,108,spr-buttons,feedback,[],
3019,foobar,12048,True,D,,,,K3MLgpK29uppByXck,0.0-3.0-0.53,5,[],D,,,"[{'role': 'speaker', 'text': 'this is a more basic shape with a diamond at the top, a point coming out to the left and another point coming out at the base to the left', 'playerId': 'juW4jvRxSzBrxXbQ8'}]",803059,,109,spr-buttons,selection,[],
3019,foobar,,,,,,,,0.0-3.0-1.53,,[],,,,,803966,,110,spr-buttons,feedback,[],
3019,foobar,3708,False,F,,,,dBAksjEwZCAZRyqJk,0.0-3.0-0.54,8,[],A,,,"[{'role': 'speaker', 'text': 'looks like a depressed person feet facing left', 'playerId': 'g2sowCsDmoh28sbgq'}]",807675,,111,spr-buttons,selection,[],
3019,foobar,,,,,,,,0.0-3.0-1.54,,[],,,,,808588,,112,spr-buttons,feedback,[],
3019,foobar,21478,True,K,,,,vb35TJcSHPpKxAzJo,0.0-3.0-0.55,3,[],K,,,"[{'role': 'speaker', 'text': ""This one is really tricky to describe but it's tall and looks like two diamonds are stacked on top of each other for the top Then it looks like arms are maybe out to the right side like they are serving something or waiting to hold something"", 'playerId': 'LPLHcHnNBPidsJsYK'}, {'role': 'speaker', 'text': 'The bottom is pretty solid with no discernable legs', 'playerId': 'LPLHcHnNBPidsJsYK'}]",830066,,113,spr-buttons,selection,[],
3019,foobar,,,,,,,,0.0-3.0-1.55,,[],,,,,830975,,114,spr-buttons,feedback,[],
3019,foobar,8185,False,G,,,,rshQ6tYBS22PNQeTe,0.0-3.0-0.56,7,[],I,,,"[{'role': 'speaker', 'text': 'yoga pose - one leg behind, facing rightwards, arm up in air, smaller leg foot in front on right side', 'playerId': 'MgJ37EC6d5m8bs8h7'}, {'role': 'speaker', 'text': 'head thrown back', 'playerId': 'MgJ37EC6d5m8bs8h7'}, {'role': 'listener', 'text': 'like a shoe', 'playerId': '4h6mj5Yg8BuRPDncp'}, {'role': 'speaker', 'text': 'yeah kind like a boot I guess', 'playerId': 'MgJ37EC6d5m8bs8h7'}, {'role': 'listener', 'text': 'head thrown back to the left', 'playerId': '4h6mj5Yg8BuRPDncp'}, {'role': 'listener', 'text': 'yep call that the boot', 'playerId': '4h6mj5Yg8BuRPDncp'}]",839161,,115,spr-buttons,selection,[],
3019,foobar,,,,,,,,0.0-3.0-1.56,,[],,,,,840071,,116,spr-buttons,feedback,[],
3019,foobar,12679,False,H,,,,QeHxf8rJXN8MCSKYR,0.0-3.0-0.57,6,[],B,,,"[{'role': 'speaker', 'text': 'kneeler with feet not on show', 'playerId': 'NxLjuiDi5cuFnLeTt'}, {'role': 'listener', 'text': 'blob', 'playerId': 'ayGjv5rqNZ8Ruuo4P'}]",852751,,117,spr-buttons,selection,[],
3019,foobar,,,,,,,,0.0-3.0-1.57,,[],,,,,853655,,118,spr-buttons,feedback,[],
3019,foobar,27517,False,J,,,,57QkWqXASdPMDFRmA,0.0-3.0-0.58,6,[],B,,,"[{'role': 'speaker', 'text': 'Diamond head, flat back, feet facing to the right, arm facing right', 'playerId': '4G9hab5MLzr3hzwbK'}, {'role': 'speaker', 'text': 'Standing', 'playerId': '4G9hab5MLzr3hzwbK'}, {'role': 'listener', 'text': 'the one with the bite taken out', 'playerId': 'G2cRaG8fekyPR6Msn'}, {'role': 'listener', 'text': 'very square shape', 'playerId': 'eXYo8Pa5AjP8RZ5ED'}, {'role': 'speaker', 'text': 'Very square shape but cut outs on the right side where feet and arm would be', 'playerId': '4G9hab5MLzr3hzwbK'}, {'role': 'listener', 'text': 'triangle arm pointing right', 'playerId': 'eXYo8Pa5AjP8RZ5ED'}]",881173,,119,spr-buttons,selection,[],
3019,foobar,,,,,,,,0.0-3.0-1.58,,[],,,,,882080,,120,spr-buttons,feedback,[],
3019,foobar,22721,False,I,,,,iHNnNCnSAx2TYjDhf,0.0-3.0-0.59,6,[],B,,,"[{'role': 'speaker', 'text': 'This is like someone in a chicken outfit', 'playerId': '2ub9Fg5YrCita2F2y'}, {'role': 'speaker', 'text': 'or doing woga', 'playerId': '2ub9Fg5YrCita2F2y'}, {'role': 'listener', 'text': ""does it look like he's doing a karate kick to the right"", 'playerId': 'fj5hYTYAfRdgfohsG'}, {'role': 'speaker', 'text': 'diamond head, then the chicken beak facing left', 'playerId': '2ub9Fg5YrCita2F2y'}, {'role': 'listener', 'text': 'Does it have two triangles going left', 'playerId': 'ghuYrBDccmDDZc3QK'}, {'role': 'speaker', 'text': 'looks like a tail or someone standing on one leg with the other leg up behind them', 'playerId': '2ub9Fg5YrCita2F2y'}, {'role': 'listener', 'text': 'looks like a dinosaur :)', 'playerId': 'SLXXsJaRnhy9QdfeY'}, {'role': 'speaker', 'text': 'yes 2 triangles going left', 'playerId': '2ub9Fg5YrCita2F2y'}]",904802,,121,spr-buttons,selection,[],
3019,foobar,,,,,,,,0.0-3.0-1.59,,[],,,,,905706,,122,spr-buttons,feedback,[],
3019,foobar,17711,True,G,,,,3NRHD2hCEgJ74Q4b2,0.0-3.0-0.60,9,[],G,,,"[{'role': 'speaker', 'text': ""X' shaped with a square head on the left side, 2 triangles on the right side one at the top and the other and the bottom"", 'playerId': 'FPvYQcmkbsKdx9sqz'}]",923418,,123,spr-buttons,selection,[],
3019,foobar,,,,,,,,0.0-3.0-1.60,,[],,,,,924326,,124,spr-buttons,feedback,[],
3019,foobar,3914,True,I,,,,vb35TJcSHPpKxAzJo,0.0-3.0-0.61,7,[],I,,,"[{'role': 'speaker', 'text': 'the ice skater', 'playerId': 'z8enMeDQgujo5sq5j'}]",928242,,125,spr-buttons,selection,[],
3019,foobar,,,,,,,,0.0-3.0-1.61,,[],,,,,929145,,126,spr-buttons,feedback,[],
3019,foobar,10152,True,H,,,,MR4xnrE8c4oCHmZX2,0.0-3.0-0.62,11,[],H,,,"[{'role': 'speaker', 'text': 'swaddled baby', 'playerId': 'QpXS5v3i8j6KhSQrr'}]",939299,,127,spr-buttons,selection,[],
3019,foobar,,,,,,,,0.0-3.0-1.62,,[],,,,,940204,,128,spr-buttons,feedback,[],
3019,foobar,9730,False,E,,,,2gkxKTcPdQews5qTX,0.0-3.0-0.63,6,[],B,,,"[{'role': 'speaker', 'text': 'two triangles coming out of top of head', 'playerId': '4LNfkAGRJtsqNhst3'}]",949934,,129,spr-buttons,selection,[],
3019,foobar,,,,,,,,0.0-3.0-1.63,,[],,,,,950843,,130,spr-buttons,feedback,[],
3019,foobar,,,,,,,,0.0-4.0,"{'other': 'Interesting. I would like to see the answers that I missed.', 'errors': 'None at all.', 'length': 'The length was fine.', 'interface': 'The interface was easy to view and navigate.', 'understand': 'Everything was clear.'}",63837,,,,,1014690,,131,survey-text,,,
3019,foobar,,,,,,,,0.0-5.0,0,2787,,"<h2>Many thanks for participating!</h2><p>We are generally interested in how people form conventions, such as shared 'nicknames' for images. Here, we are studying when these shared 'nicknames' are understandable to people who were not part of the group that created the nickname.</p><h1>Press continue to be redirected to Prolific. </h1>",,,1017479,,132,html-button-response,,,
3017,foobar,,,,[],[],[],,0.0-0.0,,,,,True,,759,False,0,preload,,,
3017,foobar,,,,,,,,0.0-1.0,0,2017,," <center><img width=""300px"" src=""assets/stanford.png"" /></center><div id=""legal""></br>By answering the following questions, you are participating in a study being performed by cognitive scientists in the Stanford Department of Psychology. If you have questions about this research, please contact us at  <a href=""mailto://languagecoglab@gmail.com.""> languagecoglab@gmail.com</a>.You must be at least 18 years old to participate. Your participation in this research is voluntary. You may decline to answer any or all of the following questions. You may decline further participation, at any time, without adverse consequences. Your anonymity is assured; the researchers who have requested your participation will not receive any personal information about you. </div></br>",,,2776,,1,html-button-response,,,
3017,foobar,,,,,,,,0.0-2.0,0,15050,,"<h3>Please read these instructions carefully!</h3> </br><div id=""intro""> <p>In this task, you will see a <b>transcript of a conversation</b> some previous participants had where a <b>speaker identified one of the images to some listeners</b>.</p></br><center><img width=""600px"" src=""assets/demo.png"" /></center></br><p>Your goal is to <b>read the transcript</b> and <b>figure out which image</b> is being described! </p><p>You will <b>click the image</b> you think is being described, and then you will <b>find out if you were right</b>.<p><p>You will see <b>64 trials</b>. The image choices will stay the same, but the transcripts will come from different groups of people. Some of the transcripts may be much shorter or longer than others. Some of the descriptions may be hard to understand -- just take a guess if you are not sure.</p><p>You will get a bonus of <b>5 cents</b> for each image you get right! </p><p> <b>Note:</b> These descriptions came from real people and may contain inappropriate or offensive language. If you find a description inappropriate, please let us know via Prolific message or in the exit survey, so we can filter it out in the future.</p>",,,17827,,2,html-button-response,,,
3017,foobar,23966,False,I,,,,K7iDK8xmfJbE9RZZE,0.0-3.0-0.0,2,[],J,,,"[{'role': 'speaker', 'text': 'Standing with one leg hands facing left', 'playerId': 'T6LMYkwKmKsFsFzre'}, {'role': 'listener', 'text': 'is one leg pointing backwards', 'playerId': 'LPvai2ptChL92dKEQ'}, {'role': 'listener', 'text': 'at an angle or straight', 'playerId': 'q3QkkAc5WnzHzSJSe'}, {'role': 'speaker', 'text': 'straight', 'playerId': 'T6LMYkwKmKsFsFzre'}]",41793,,3,spr-buttons,selection,[],
3017,foobar,,,,,,,,0.0-3.0-1.0,,[],,,,,42697,,4,spr-buttons,feedback,[],
3017,foobar,5828,True,C,,,,2gkxKTcPdQews5qTX,0.0-3.0-0.1,1,[],C,,,"[{'role': 'speaker', 'text': 'no legs hands waving in air', 'playerId': 'yN5pFmHQdR2zzStyt'}]",48527,,5,spr-buttons,selection,[],
3017,foobar,,,,,,,,0.0-3.0-1.1,,[],,,,,49430,,6,spr-buttons,feedback,[],
3017,foobar,9746,True,I,,,,oJFB5dkDNtRxZNzec,0.0-3.0-0.2,9,[],I,,,"[{'role': 'speaker', 'text': 'person with leg behind them standing', 'playerId': 'q7PZmgpyPo6hEuEnt'}]",59178,,7,spr-buttons,selection,[],
3017,foobar,,,,,,,,0.0-3.0-1.2,,[],,,,,60084,,8,spr-buttons,feedback,[],
3017,foobar,3160,True,E,,,,f69G9D9Q2uiv2MCJn,0.0-3.0-0.3,10,[],E,,,"[{'role': 'speaker', 'text': 'bunny', 'playerId': 'KhyGCb79wtn4KpfMc'}]",63245,,9,spr-buttons,selection,[],
3017,foobar,,,,,,,,0.0-3.0-1.3,,[],,,,,64151,,10,spr-buttons,feedback,[],
3017,foobar,5343,False,D,,,,sijMDqp4oocvXG8Sv,0.0-3.0-0.4,2,[],J,,,"[{'role': 'speaker', 'text': 'looks like a priest in a full length robe with toe peeping out to left', 'playerId': 'KaSEuARC4mQrELeZP'}, {'role': 'speaker', 'text': 'head straight', 'playerId': 'KaSEuARC4mQrELeZP'}]",69494,,11,spr-buttons,selection,[],
3017,foobar,,,,,,,,0.0-3.0-1.4,,[],,,,,70397,,12,spr-buttons,feedback,[],
3017,foobar,13114,True,F,,,,4eigY5GthWZfxug8D,0.0-3.0-0.5,5,[],F,,,"[{'role': 'speaker', 'text': 'sad man with poncho', 'playerId': 'T8RuPGkjXkXWtsHrf'}, {'role': 'speaker', 'text': 'feet pointing left', 'playerId': 'T8RuPGkjXkXWtsHrf'}, {'role': 'listener', 'text': 'knees up', 'playerId': 'W2FcmbCnXZFmMLy9v'}, {'role': 'listener', 'text': 'sad boi', 'playerId': 'W2FcmbCnXZFmMLy9v'}]",83511,,13,spr-buttons,selection,[],
3017,foobar,,,,,,,,0.0-3.0-1.5,,[],,,,,84416,,14,spr-buttons,feedback,[],
3017,foobar,4144,False,D,,,,CNET4E5tvYW37ZevE,0.0-3.0-0.6,1,[],C,,,"[{'role': 'speaker', 'text': 'robe man with book', 'playerId': 'dxXnuyKwFTw4bdKd5'}]",88561,,15,spr-buttons,selection,[],
3017,foobar,,,,,,,,0.0-3.0-1.6,,[],,,,,89465,,16,spr-buttons,feedback,[],
3017,foobar,6561,False,J,,,,QeHxf8rJXN8MCSKYR,0.0-3.0-0.7,1,[],C,,,"[{'role': 'speaker', 'text': 'scarecrow', 'playerId': 'NxLjuiDi5cuFnLeTt'}]",96027,,17,spr-buttons,selection,[],
3017,foobar,,,,,,,,0.0-3.0-1.7,,[],,,,,96929,,18,spr-buttons,feedback,[],
3017,foobar,13165,False,C,,,,TNRYprBpNcgCrb2HF,0.0-3.0-0.8,11,[],D,,,"[{'role': 'speaker', 'text': 'The next target image looks like someone standing up but only showing the top half of the body with their arms outstretched and facing to the left when facing the image', 'playerId': 'ZBAXeNd9hoDrFHWhf'}]",110095,,19,spr-buttons,selection,[],
3017,foobar,,,,,,,,0.0-3.0-1.8,,[],,,,,111000,,20,spr-buttons,feedback,[],
3017,foobar,3627,True,F,,,,gjooqsuf2CPN5AWxi,0.0-3.0-0.9,5,[],F,,,"[{'role': 'speaker', 'text': 'sitting down knees up to chest', 'playerId': 'SzYY9C53Ne7cMaPHC'}]",114628,,21,spr-buttons,selection,[],
3017,foobar,,,,,,,,0.0-3.0-1.9,,[],,,,,115530,,22,spr-buttons,feedback,[],
3017,foobar,7980,False,C,,,,Ho7KBcTdiQgiorfmE,0.0-3.0-0.10,9,[],I,,,"[{'role': 'speaker', 'text': 'Goalkeeper!', 'playerId': 'oockd8Hdym34fgHF7'}]",123511,,23,spr-buttons,selection,[],
3017,foobar,,,,,,,,0.0-3.0-1.10,,[],,,,,124415,,24,spr-buttons,feedback,[],
3017,foobar,7928,True,G,,,,rshQ6tYBS22PNQeTe,0.0-3.0-0.11,4,[],G,,,"[{'role': 'speaker', 'text': 'yoga pose - one leg behind, facing rightwards, arm up in air, smaller leg foot in front on right side', 'playerId': 'MgJ37EC6d5m8bs8h7'}, {'role': 'speaker', 'text': 'head thrown back', 'playerId': 'MgJ37EC6d5m8bs8h7'}, {'role': 'listener', 'text': 'like a shoe', 'playerId': '4h6mj5Yg8BuRPDncp'}, {'role': 'speaker', 'text': 'yeah kind like a boot I guess', 'playerId': 'MgJ37EC6d5m8bs8h7'}, {'role': 'listener', 'text': 'head thrown back to the left', 'playerId': '4h6mj5Yg8BuRPDncp'}, {'role': 'listener', 'text': 'yep call that the boot', 'playerId': '4h6mj5Yg8BuRPDncp'}]",132345,,25,spr-buttons,selection,[],
3017,foobar,,,,,,,,0.0-3.0-1.11,,[],,,,,133250,,26,spr-buttons,feedback,[],
3017,foobar,2011,True,E,,,,t3d4LuHZFazCzHhYq,0.0-3.0-0.12,10,[],E,,,"[{'role': 'speaker', 'text': 'Rabbit', 'playerId': 'MEzLvjsPcEa2JLSwn'}]",135262,,27,spr-buttons,selection,[],
3017,foobar,,,,,,,,0.0-3.0-1.12,,[],,,,,136167,,28,spr-buttons,feedback,[],
3017,foobar,10560,True,D,,,,g6tPwYeFzT3Cer5qC,0.0-3.0-0.13,11,[],D,,,"[{'role': 'speaker', 'text': ""The person is standing up with a diamond head facing to the left and it looks like it's holding something"", 'playerId': 'SyzxCSX67Gx4LQRg7'}]",146728,,29,spr-buttons,selection,[],
3017,foobar,,,,,,,,0.0-3.0-1.13,,[],,,,,147633,,30,spr-buttons,feedback,[],
3017,foobar,20194,False,H,,,,sijMDqp4oocvXG8Sv,0.0-3.0-0.14,6,[],A,,,"[{'role': 'speaker', 'text': 'block foot to right', 'playerId': 'KpkQvEaJQStx557HY'}, {'role': 'speaker', 'text': 'body straight', 'playerId': 'KpkQvEaJQStx557HY'}, {'role': 'speaker', 'text': 'head straight', 'playerId': 'KpkQvEaJQStx557HY'}, {'role': 'speaker', 'text': 'no arms', 'playerId': 'KpkQvEaJQStx557HY'}]",167828,,31,spr-buttons,selection,[],
3017,foobar,,,,,,,,0.0-3.0-1.14,,[],,,,,168734,,32,spr-buttons,feedback,[],
3017,foobar,6293,True,C,,,,xXhypRAC7tRGakzHn,0.0-3.0-0.15,1,[],C,,,"[{'role': 'speaker', 'text': 'Like a who cares Both hands above shoulders Inverted type', 'playerId': 'LK6nCiq4mWKCExxjc'}]",175028,,33,spr-buttons,selection,[],
3017,foobar,,,,,,,,0.0-3.0-1.15,,[],,,,,175930,,34,spr-buttons,feedback,[],
3017,foobar,5931,False,B,,,,hqPW2hTEhEE5ANa9u,0.0-3.0-0.16,9,[],I,,,"[{'role': 'speaker', 'text': 'two triangles facing out from body, diamond (head) is above triangle which is not fully connected to body', 'playerId': 'vKzSKrkQii668Ft98'}, {'role': 'speaker', 'text': 'small triangle on left side on the floor', 'playerId': 'vKzSKrkQii668Ft98'}]",181861,,35,spr-buttons,selection,[],
3017,foobar,,,,,,,,0.0-3.0-1.16,,[],,,,,182764,,36,spr-buttons,feedback,[],
3017,foobar,11664,False,J,,,,8vDbP6xD36MAFSAFC,0.0-3.0-0.17,9,[],I,,,"[{'role': 'speaker', 'text': ""square head on an almost complete rectangle except for the 'missing bits on the right hand side) - described as if eaten out of image"", 'playerId': 'JPJgMw5EzQBQ6gw9a'}, {'role': 'speaker', 'text': 'flat shoulder', 'playerId': 'JPJgMw5EzQBQ6gw9a'}, {'role': 'speaker', 'text': 'shoulders', 'playerId': 'JPJgMw5EzQBQ6gw9a'}]",194429,,37,spr-buttons,selection,[],
3017,foobar,,,,,,,,0.0-3.0-1.17,,[],,,,,195335,,38,spr-buttons,feedback,[],
3017,foobar,6410,True,K,,,,znKKpRy5yMqbmRwJs,0.0-3.0-0.18,8,[],K,,,"[{'role': 'speaker', 'text': 'Praying woman facing right, totally kneeling, toes sticking up on the left', 'playerId': 'BvaPCcwnMZiHzHzcz'}]",201746,,39,spr-buttons,selection,[],
3017,foobar,,,,,,,,0.0-3.0-1.18,,[],,,,,202652,,40,spr-buttons,feedback,[],
3017,foobar,7642,False,H,,,,FDXJ7stbQxKCkcKzv,0.0-3.0-0.19,4,[],G,,,"[{'role': 'speaker', 'text': 'Standing figure', 'playerId': 'qs9igjQTnJt7wfpyq'}, {'role': 'speaker', 'text': 'No legs, just purely block like', 'playerId': 'qs9igjQTnJt7wfpyq'}, {'role': 'speaker', 'text': 'Diamond head leaning towards the right', 'playerId': 'qs9igjQTnJt7wfpyq'}, {'role': 'speaker', 'text': 'No arms either', 'playerId': 'qs9igjQTnJt7wfpyq'}, {'role': 'listener', 'text': 'with 2 triangle like ears at the top', 'playerId': 'mywQnZtzE6E5yzwkE'}, {'role': 'speaker', 'text': 'No ears', 'playerId': 'qs9igjQTnJt7wfpyq'}, {'role': 'listener', 'text': 'Does it have a small triangle stub on the bottom, pointing to the right', 'playerId': 'SFa7XF9tfzsrWHsR9'}, {'role': 'listener', 'text': ""does the end of the torso look like it's pointing to the right"", 'playerId': '4FA96Kd5aWNgngrju'}, {'role': 'speaker', 'text': 'Has a triangle point out of the right side', 'playerId': 'qs9igjQTnJt7wfpyq'}, {'role': 'speaker', 'text': ""Were it's foot would be"", 'playerId': 'qs9igjQTnJt7wfpyq'}, {'role': 'listener', 'text': 'back curved', 'playerId': 'mywQnZtzE6E5yzwkE'}]",210296,,41,spr-buttons,selection,[],
3017,foobar,,,,,,,,0.0-3.0-1.19,,[],,,,,211200,,42,spr-buttons,feedback,[],
3017,foobar,8845,False,J,,,,sijMDqp4oocvXG8Sv,0.0-3.0-0.20,6,[],A,,,"[{'role': 'speaker', 'text': 'squarish one', 'playerId': 'FQQrSsuYhM8jdKhTz'}]",220046,,43,spr-buttons,selection,[],
3017,foobar,,,,,,,,0.0-3.0-1.20,,[],,,,,220951,,44,spr-buttons,feedback,[],
3017,foobar,5627,False,F,,,,omQAFChFFHAuAbPT3,0.0-3.0-0.21,4,[],G,,,"[{'role': 'speaker', 'text': 'Facing to the right, in sitting position', 'playerId': 'faazMWGBB5FbpcYAT'}, {'role': 'speaker', 'text': 'can see foot extended to the left, sorry character facing LEFT', 'playerId': 'faazMWGBB5FbpcYAT'}]",226579,,45,spr-buttons,selection,[],
3017,foobar,,,,,,,,0.0-3.0-1.21,,[],,,,,227485,,46,spr-buttons,feedback,[],
3017,foobar,149376,True,A,,,,oHLkd73zMwDSpso8k,0.0-3.0-0.22,6,[],A,,,"[{'role': 'speaker', 'text': 'two feet, one on ground and one kicking, both pointed left, head pointed right', 'playerId': 'MJnDMAZWWBXN6pmrK'}]",376840,,47,spr-buttons,selection,[],
3017,foobar,,,,,,,,0.0-3.0-1.22,,[],,,,,377743,,48,spr-buttons,feedback,[],
3017,foobar,6263,False,L,,,,HQFFuFvRujP3TicZT,0.0-3.0-0.23,8,[],K,,,"[{'role': 'speaker', 'text': 'shape is bent at the knees with a v shape on the right side', 'playerId': 'voQ3MHuBEzvoDt2pu'}, {'role': 'speaker', 'text': 'the shape looks like its crouching', 'playerId': 'voQ3MHuBEzvoDt2pu'}]",384007,,49,spr-buttons,selection,[],
3017,foobar,,,,,,,,0.0-3.0-1.23,,[],,,,,384910,,50,spr-buttons,feedback,[],
3017,foobar,14598,False,H,,,,yf4vLYMpH9j84z98K,0.0-3.0-0.24,4,[],G,,,"[{'role': 'speaker', 'text': 'Looks like it is facing forward with one triangle at the bottom right', 'playerId': 'fRQb9DJBabAZCcAjY'}]",399509,,51,spr-buttons,selection,[],
3017,foobar,,,,,,,,0.0-3.0-1.24,,[],,,,,400414,,52,spr-buttons,feedback,[],
3017,foobar,5076,True,C,,,,FDXJ7stbQxKCkcKzv,0.0-3.0-0.25,1,[],C,,,"[{'role': 'speaker', 'text': 'Figure almost looks shot dead', 'playerId': 'qs9igjQTnJt7wfpyq'}, {'role': 'speaker', 'text': 'Diamond head', 'playerId': 'qs9igjQTnJt7wfpyq'}, {'role': 'listener', 'text': 'both arms raised', 'playerId': 'mywQnZtzE6E5yzwkE'}, {'role': 'listener', 'text': 'two arms up', 'playerId': 'Gebor7AaNSy3bp4Ch'}, {'role': 'speaker', 'text': 'Two arms raised up', 'playerId': 'qs9igjQTnJt7wfpyq'}, {'role': 'listener', 'text': 'leaning left', 'playerId': 'SFa7XF9tfzsrWHsR9'}, {'role': 'speaker', 'text': 'No legs', 'playerId': 'qs9igjQTnJt7wfpyq'}]",405491,,53,spr-buttons,selection,[],
3017,foobar,,,,,,,,0.0-3.0-1.25,,[],,,,,406395,,54,spr-buttons,feedback,[],
3017,foobar,4544,True,L,,,,yYtSpzsEi4mnTuPrj,0.0-3.0-0.26,3,[],L,,,"[{'role': 'speaker', 'text': 'squats', 'playerId': 'hY28gtQhhvyFvpihB'}]",410940,,55,spr-buttons,selection,[],
3017,foobar,,,,,,,,0.0-3.0-1.26,,[],,,,,411843,,56,spr-buttons,feedback,[],
3017,foobar,8081,True,J,,,,Z2WAkYpWiXwuGcdME,0.0-3.0-0.27,2,[],J,,,"[{'role': 'speaker', 'text': 'rectangle', 'playerId': 'R3cRgh4HmEtRsmQyp'}]",419924,,57,spr-buttons,selection,[],
3017,foobar,,,,,,,,0.0-3.0-1.27,,[],,,,,420826,,58,spr-buttons,feedback,[],
3017,foobar,18314,False,L,,,,cLaK88862bv7MHMuQ,0.0-3.0-0.28,2,[],J,,,"[{'role': 'speaker', 'text': 'Legs in a zig zag', 'playerId': 'XgpZ3ySCe7xA9xome'}, {'role': 'speaker', 'text': 'Head slightly to the right of shoulders', 'playerId': 'XgpZ3ySCe7xA9xome'}, {'role': 'speaker', 'text': 'Flat back on left-hand side', 'playerId': 'XgpZ3ySCe7xA9xome'}, {'role': 'speaker', 'text': 'Not left', 'playerId': 'XgpZ3ySCe7xA9xome'}, {'role': 'speaker', 'text': 'Clear', 'playerId': 'XgpZ3ySCe7xA9xome'}]",439140,,59,spr-buttons,selection,[],
3017,foobar,,,,,,,,0.0-3.0-1.28,,[],,,,,440044,,60,spr-buttons,feedback,[],
3017,foobar,4979,False,K,,,,6ZtMrReWRYFFydpHK,0.0-3.0-0.29,4,[],G,,,"[{'role': 'speaker', 'text': 'Someone kneeling bowl to the right', 'playerId': 'D3HFDGENYCiG9LDJf'}]",445024,,61,spr-buttons,selection,[],
3017,foobar,,,,,,,,0.0-3.0-1.29,,[],,,,,445926,,62,spr-buttons,feedback,[],
3017,foobar,2664,True,I,,,,byWRCj2bTz2Guefog,0.0-3.0-0.30,9,[],I,,,"[{'role': 'speaker', 'text': 'this looks like a ballet dancer with a leg stretched back, but the leg is a triangle and the head is a square', 'playerId': 'AXLc5WsF9dMwS482A'}, {'role': 'speaker', 'text': 'the chest is two triangles on the left', 'playerId': 'AXLc5WsF9dMwS482A'}]",448591,,63,spr-buttons,selection,[],
3017,foobar,,,,,,,,0.0-3.0-1.30,,[],,,,,449494,,64,spr-buttons,feedback,[],
3017,foobar,3162,True,C,,,,FfK5QXXSw833vwHKX,0.0-3.0-0.31,1,[],C,,,"[{'role': 'speaker', 'text': 'the guy is leaning left with his arms up kind of like ""but why""', 'playerId': '6iMbQKiFyJ2YwPaeo'}]",452658,,65,spr-buttons,selection,[],
3017,foobar,,,,,,,,0.0-3.0-1.31,,[],,,,,453564,,66,spr-buttons,feedback,[],
3017,foobar,15813,True,I,,,,LWXs28TdQJxaEcPzm,0.0-3.0-0.32,9,[],I,,,"[{'role': 'speaker', 'text': 'ice-skater', 'playerId': 'kZ2NqwjtL4c9vCSCM'}]",469378,,67,spr-buttons,selection,[],
3017,foobar,80,,,,,,,0.0-3.0-1.32,9,[],,,,,469459,,68,spr-buttons,feedback,[],
3017,foobar,3864,True,A,,,,uBEeQNkPmETCWMFi8,0.0-3.0-0.33,6,[],A,,,"[{'role': 'speaker', 'text': 'Bird man person carrying a small square box bag on their back Bird person is looking down to the left towards their right foot that is raised in the air Like they have stepped in something Has a beak shape on the face and is stood on one leg', 'playerId': 'eHgnYSqXkkkmbg6Bj'}]",473324,,69,spr-buttons,selection,[],
3017,foobar,,,,,,,,0.0-3.0-1.33,,[],,,,,474228,,70,spr-buttons,feedback,[],
3017,foobar,2963,False,J,,,,7eWGPqmG35RrZoezF,0.0-3.0-0.34,0,[],B,,,"[{'role': 'speaker', 'text': 'kneeling pointing right', 'playerId': 'HcAY9mNwACmDrRN2A'}]",477192,,71,spr-buttons,selection,[],
3017,foobar,,,,,,,,0.0-3.0-1.34,,[],,,,,478098,,72,spr-buttons,feedback,[],
3017,foobar,7693,False,B,,,,TswNa6hfiGwkWHMgB,0.0-3.0-0.35,8,[],K,,,"[{'role': 'speaker', 'text': 'girl with triangle hat on back of net with palms and feet extended', 'playerId': 'BCjiqev2Kt7Lze3nQ'}, {'role': 'speaker', 'text': '*neck', 'playerId': 'BCjiqev2Kt7Lze3nQ'}, {'role': 'speaker', 'text': 'She has her hands out in front of her', 'playerId': 'BCjiqev2Kt7Lze3nQ'}]",485792,,73,spr-buttons,selection,[],
3017,foobar,,,,,,,,0.0-3.0-1.35,,[],,,,,486695,,74,spr-buttons,feedback,[],
3017,foobar,5046,True,C,,,,6cWDb4KB2JkQYoEn8,0.0-3.0-0.36,1,[],C,,,"[{'role': 'speaker', 'text': 'flying angel, outstretched arms, going to the left', 'playerId': 'hMtbTjcXoP7mcPqWm'}]",491741,,75,spr-buttons,selection,[],
3017,foobar,,,,,,,,0.0-3.0-1.36,,[],,,,,492646,,76,spr-buttons,feedback,[],
3017,foobar,9210,False,K,,,,QTLcapnjShjWX3s4t,0.0-3.0-0.37,4,[],G,,,"[{'role': 'speaker', 'text': 'square head on square neck facing the right', 'playerId': 'xC7eosoFk4ekBGb85'}, {'role': 'speaker', 'text': 'looks like kneeling', 'playerId': 'xC7eosoFk4ekBGb85'}]",501857,,77,spr-buttons,selection,[],
3017,foobar,,,,,,,,0.0-3.0-1.37,,[],,,,,502759,,78,spr-buttons,feedback,[],
3017,foobar,1881,True,C,,,,3Sj3XTKmk9Rqe4Bim,0.0-3.0-0.38,1,[],C,,,"[{'role': 'speaker', 'text': 'looks like an angel with arms outstretched', 'playerId': 'xGudhNiRmy2YuaHzK'}]",504641,,79,spr-buttons,selection,[],
3017,foobar,,,,,,,,0.0-3.0-1.38,,[],,,,,505546,,80,spr-buttons,feedback,[],
3017,foobar,7461,True,A,,,,LfuChcnEB54q8Ztys,0.0-3.0-0.39,6,[],A,,,"[{'role': 'speaker', 'text': 'dancing birdman', 'playerId': 'tdJMBevkwaPaQKjM6'}, {'role': 'speaker', 'text': 'facing left', 'playerId': 'tdJMBevkwaPaQKjM6'}, {'role': 'speaker', 'text': 'big triangle for a head', 'playerId': 'tdJMBevkwaPaQKjM6'}, {'role': 'speaker', 'text': 'square balanced over right shoulder with one leg up', 'playerId': 'tdJMBevkwaPaQKjM6'}]",513007,,81,spr-buttons,selection,[],
3017,foobar,,,,,,,,0.0-3.0-1.39,,[],,,,,513909,,82,spr-buttons,feedback,[],
3017,foobar,7098,True,L,,,,omQAFChFFHAuAbPT3,0.0-3.0-0.40,3,[],L,,,"[{'role': 'speaker', 'text': 'facing right', 'playerId': 'faazMWGBB5FbpcYAT'}, {'role': 'speaker', 'text': 'in prayer pose', 'playerId': 'faazMWGBB5FbpcYAT'}, {'role': 'speaker', 'text': 'arms to right', 'playerId': 'faazMWGBB5FbpcYAT'}, {'role': 'listener', 'text': 'feet or no feet', 'playerId': 'GT3oEBtgrN342i2eN'}, {'role': 'speaker', 'text': 'no feet visible', 'playerId': 'faazMWGBB5FbpcYAT'}]",521008,,83,spr-buttons,selection,[],
3017,foobar,,,,,,,,0.0-3.0-1.40,,[],,,,,521910,,84,spr-buttons,feedback,[],
3017,foobar,29365,True,C,,,,47tccL2hHpmjgZT8o,0.0-3.0-0.41,1,[],C,,,"[{'role': 'speaker', 'text': ""Okay so to make this quick, this quick, this was the first one, it's a Olympic RUNNER passaging the line but this time going left"", 'playerId': 'EvFdP2G2k6NiphcPW'}, {'role': 'speaker', 'text': 'they have both arms in the air like celebrating', 'playerId': 'EvFdP2G2k6NiphcPW'}, {'role': 'listener', 'text': 'and no legs', 'playerId': 'SrQC27xLPE3vw8aJF'}, {'role': 'speaker', 'text': 'No legs zuda', 'playerId': 'EvFdP2G2k6NiphcPW'}]",551276,,85,spr-buttons,selection,[],
3017,foobar,,,,,,,,0.0-3.0-1.41,,[],,,,,552180,,86,spr-buttons,feedback,[],
3017,foobar,4994,True,L,,,,ogPZPPCKpGn4votMa,0.0-3.0-0.42,3,[],L,,,"[{'role': 'speaker', 'text': 'looking right with knees kinda bent with hand out in front', 'playerId': 'fLSfDEdkLomjBKJ4E'}, {'role': 'speaker', 'text': 'diamond head', 'playerId': 'fLSfDEdkLomjBKJ4E'}, {'role': 'listener', 'text': 'is it kinda kneeling', 'playerId': 'Y3ATEvaw2Ex9TyTaM'}, {'role': 'speaker', 'text': 'yes looks like its about to kneel', 'playerId': 'fLSfDEdkLomjBKJ4E'}]",557175,,87,spr-buttons,selection,[],
3017,foobar,,,,,,,,0.0-3.0-1.42,,[],,,,,558081,,88,spr-buttons,feedback,[],
3017,foobar,4159,False,K,,,,BP9jqaXgDcqoupu9X,0.0-3.0-0.43,10,[],E,,,"[{'role': 'speaker', 'text': 'seated person facing right', 'playerId': 'MjgM5qp98eAX4zuZL'}]",562242,,89,spr-buttons,selection,[],
3017,foobar,,,,,,,,0.0-3.0-1.43,,[],,,,,563149,,90,spr-buttons,feedback,[],
3017,foobar,6059,True,E,,,,2yTRgeWp8WH65rQQq,0.0-3.0-0.44,10,[],E,,,"[{'role': 'speaker', 'text': 'triangle base that goes into a square, with the two triangles on top', 'playerId': '6orNN6e8XB9vh277r'}]",569208,,91,spr-buttons,selection,[],
3017,foobar,,,,,,,,0.0-3.0-1.44,,[],,,,,570114,,92,spr-buttons,feedback,[],
3017,foobar,11611,False,K,,,,APb85jFMnKTvtxB9Q,0.0-3.0-0.45,4,[],G,,,"[{'role': 'speaker', 'text': 'Kneeling Pointing to right Two diamonds as head Left upward tick on garment', 'playerId': '8EKHajAZMvmFinexJ'}]",581726,,93,spr-buttons,selection,[],
3017,foobar,,,,,,,,0.0-3.0-1.45,,[],,,,,582631,,94,spr-buttons,feedback,[],
3017,foobar,5443,True,A,,,,iWDET8rLPYMj9RE39,0.0-3.0-0.46,6,[],A,,,"[{'role': 'speaker', 'text': 'Kicking legs facing left', 'playerId': 'ztMeHhJLmdDTHBMJS'}]",588074,,95,spr-buttons,selection,[],
3017,foobar,,,,,,,,0.0-3.0-1.46,,[],,,,,588977,,96,spr-buttons,feedback,[],
3017,foobar,5514,False,G,,,,FmuScBvZuEj2zegE2,0.0-3.0-0.47,1,[],C,,,"[{'role': 'speaker', 'text': 'belly up guy', 'playerId': 'pyBP4wTvPc2uhWfZ9'}]",594492,,97,spr-buttons,selection,[],
3017,foobar,,,,,,,,0.0-3.0-1.47,,[],,,,,595397,,98,spr-buttons,feedback,[],
3017,foobar,3260,False,L,,,,JnYAkqq7mqk9Gxdse,0.0-3.0-0.48,8,[],K,,,"[{'role': 'speaker', 'text': 'facing right **original** man praying', 'playerId': 'KgdEYahjHpGSFCw4r'}]",598659,,99,spr-buttons,selection,[],
3017,foobar,,,,,,,,0.0-3.0-1.48,,[],,,,,599564,,100,spr-buttons,feedback,[],
3017,foobar,5710,False,B,,,,oXTMu3q59e3nffGz3,0.0-3.0-0.49,8,[],K,,,"[{'role': 'speaker', 'text': 'angel', 'playerId': 'LTS4YALfJnHNGsMfu'}, {'role': 'speaker', 'text': 'hera - seal has got a little tail flick on left side', 'playerId': 'LTS4YALfJnHNGsMfu'}]",605276,,101,spr-buttons,selection,[],
3017,foobar,,,,,,,,0.0-3.0-1.49,,[],,,,,606181,,102,spr-buttons,feedback,[],
3017,foobar,2043,True,F,,,,MR4xnrE8c4oCHmZX2,0.0-3.0-0.50,5,[],F,,,"[{'role': 'speaker', 'text': 'left facing, sitting', 'playerId': 'SzgQCuHiAotKNJLPk'}]",608225,,103,spr-buttons,selection,[],
3017,foobar,,,,,,,,0.0-3.0-1.50,,[],,,,,609131,,104,spr-buttons,feedback,[],
3017,foobar,1860,True,E,,,,79swBZFsJnrQuHvhd,0.0-3.0-0.51,10,[],E,,,"[{'role': 'speaker', 'text': 'rabbit ear guy sitting facing right (right angle at bottom left corner)', 'playerId': 'wQmTAXk3WXqT2b275'}]",610991,,105,spr-buttons,selection,[],
3017,foobar,,,,,,,,0.0-3.0-1.51,,[],,,,,611894,,106,spr-buttons,feedback,[],
3017,foobar,3464,False,K,,,,vb35TJcSHPpKxAzJo,0.0-3.0-0.52,7,[],H,,,"[{'role': 'speaker', 'text': ""This one is really tricky to describe but it's tall and looks like two diamonds are stacked on top of each other for the top Then it looks like arms are maybe out to the right side like they are serving something or waiting to hold something"", 'playerId': 'LPLHcHnNBPidsJsYK'}, {'role': 'speaker', 'text': 'The bottom is pretty solid with no discernable legs', 'playerId': 'LPLHcHnNBPidsJsYK'}]",615359,,107,spr-buttons,selection,[],
3017,foobar,,,,,,,,0.0-3.0-1.52,,[],,,,,616264,,108,spr-buttons,feedback,[],
3017,foobar,6376,True,J,,,,93ZvRh5AYPNeTJxjv,0.0-3.0-0.53,2,[],J,,,"[{'role': 'speaker', 'text': 'Straight back', 'playerId': 'dyTDDFiSuSCvwZD9b'}, {'role': 'speaker', 'text': 'triangle foot', 'playerId': 'dyTDDFiSuSCvwZD9b'}, {'role': 'speaker', 'text': 'to the right', 'playerId': 'dyTDDFiSuSCvwZD9b'}, {'role': 'listener', 'text': 'what position', 'playerId': 'EigvT8eA8dqhuxwk6'}, {'role': 'speaker', 'text': 'diamond head', 'playerId': 'dyTDDFiSuSCvwZD9b'}, {'role': 'speaker', 'text': 'standing', 'playerId': 'dyTDDFiSuSCvwZD9b'}, {'role': 'listener', 'text': 'straight edge on left Back', 'playerId': 'eJA6FpeTKabMYR8rb'}, {'role': 'listener', 'text': 'one triangle hand', 'playerId': '5a7w57CMsYw6nbJgN'}, {'role': 'speaker', 'text': 'left', 'playerId': 'dyTDDFiSuSCvwZD9b'}, {'role': 'speaker', 'text': 'one hand yes', 'playerId': 'dyTDDFiSuSCvwZD9b'}, {'role': 'listener', 'text': 'straight back', 'playerId': '5a7w57CMsYw6nbJgN'}]",622642,,109,spr-buttons,selection,[],
3017,foobar,,,,,,,,0.0-3.0-1.53,,[],,,,,623547,,110,spr-buttons,feedback,[],
3017,foobar,17678,False,K,,,,vuZBGuCBS5f9ibvk7,0.0-3.0-0.54,0,[],B,,,"[{'role': 'speaker', 'text': 'looks like johnny 5 person holding out something to the right Back left side pointing up', 'playerId': 'yyyzhfLtfEXgbF8XH'}]",641226,,111,spr-buttons,selection,[],
3017,foobar,,,,,,,,0.0-3.0-1.54,,[],,,,,642133,,112,spr-buttons,feedback,[],
3017,foobar,5525,True,I,,,,SRBofppfmKZ4dhpv2,0.0-3.0-0.55,9,[],I,,,"[{'role': 'speaker', 'text': 'figure about to kick hard', 'playerId': 'PDN8wbfj49btpLgpq'}, {'role': 'listener', 'text': 'two arms to the left', 'playerId': 'DJ3JhctBDsJPjadGp'}, {'role': 'speaker', 'text': 'one long leg and little right leg', 'playerId': 'PDN8wbfj49btpLgpq'}]",647659,,113,spr-buttons,selection,[],
3017,foobar,,,,,,,,0.0-3.0-1.55,,[],,,,,648565,,114,spr-buttons,feedback,[],
3017,foobar,5943,True,C,,,,Ja6HX8DgvFAspRAYm,0.0-3.0-0.56,1,[],C,,,"[{'role': 'speaker', 'text': 'no legs leaning to the left arms out', 'playerId': 'Kzhdqc62M5vtN2q4e'}]",654509,,115,spr-buttons,selection,[],
3017,foobar,,,,,,,,0.0-3.0-1.56,,[],,,,,655415,,116,spr-buttons,feedback,[],
3017,foobar,2909,True,H,,,,pAtG6vt3AyaJypa2j,0.0-3.0-0.57,7,[],H,,,"[{'role': 'speaker', 'text': 'half hexagon left side of body', 'playerId': '3D7MbrSZL62xJBhib'}]",658325,,117,spr-buttons,selection,[],
3017,foobar,,,,,,,,0.0-3.0-1.57,,[],,,,,659231,,118,spr-buttons,feedback,[],
3017,foobar,2477,True,A,,,,G74GhYGrsaxrsfYxf,0.0-3.0-0.58,6,[],A,,,"[{'role': 'speaker', 'text': 'dinosaur carrying square on shoulder', 'playerId': 'G7t4KfQdMhBApqMvT'}]",661709,,119,spr-buttons,selection,[],
3017,foobar,,,,,,,,0.0-3.0-1.58,,[],,,,,662614,,120,spr-buttons,feedback,[],
3017,foobar,2577,True,B,,,,voSMQaG9H4nC4jy32,0.0-3.0-0.59,0,[],B,,,"[{'role': 'speaker', 'text': 'Kneeling towards us with both arms out', 'playerId': 'xCczn7ZDHtYRWQE6W'}]",665192,,121,spr-buttons,selection,[],
3017,foobar,,,,,,,,0.0-3.0-1.59,,[],,,,,666098,,122,spr-buttons,feedback,[],
3017,foobar,5326,True,I,,,,QzDZ9idpFkW6nHuCq,0.0-3.0-0.60,9,[],I,,,"[{'role': 'speaker', 'text': 'arms out left one foot out to right', 'playerId': '64rzpC4x4MeQZbRPz'}, {'role': 'speaker', 'text': ""like it's falling to left"", 'playerId': '64rzpC4x4MeQZbRPz'}]",671425,,123,spr-buttons,selection,[],
3017,foobar,,,,,,,,0.0-3.0-1.60,,[],,,,,672331,,124,spr-buttons,feedback,[],
3017,foobar,7443,False,J,,,,GfdodQMJHhNodveqQ,0.0-3.0-0.61,9,[],I,,,"[{'role': 'speaker', 'text': 'Select the picture with the most left hand side', 'playerId': '5HHG2vhFvkf56ugh3'}]",679774,,125,spr-buttons,selection,[],
3017,foobar,,,,,,,,0.0-3.0-1.61,,[],,,,,680677,,126,spr-buttons,feedback,[],
3017,foobar,5413,True,G,,,,GfdodQMJHhNodveqQ,0.0-3.0-0.62,4,[],G,,,"[{'role': 'speaker', 'text': 'Select the figure that looks like a horse with extended leg and head backwards', 'playerId': '5HHG2vhFvkf56ugh3'}]",686091,,127,spr-buttons,selection,[],
3017,foobar,,,,,,,,0.0-3.0-1.62,,[],,,,,686994,,128,spr-buttons,feedback,[],
3017,foobar,2381,True,I,,,,3QfyJMSuR6NqnvyjZ,0.0-3.0-0.63,9,[],I,,,"[{'role': 'speaker', 'text': 'ice skating to the left', 'playerId': 'da9qQSRFWpcgTxJHM'}]",689375,,129,spr-buttons,selection,[],
3017,foobar,,,,,,,,0.0-3.0-1.63,,[],,,,,690279,,130,spr-buttons,feedback,[],
3017,foobar,,,,,,,,0.0-4.0,"{'other': 'I hope you get the data you need for your study. ', 'errors': 'I experienced no issues. ', 'length': 'The length was approriate. ', 'interface': 'I think it was good as it is. ', 'understand': 'They were clear. Nothing was confusing.'}",48410,,,,,738709,,131,survey-text,,,
3017,foobar,,,,,,,,0.0-5.0,0,2131,,"<h2>Many thanks for participating!</h2><p>We are generally interested in how people form conventions, such as shared 'nicknames' for images. Here, we are studying when these shared 'nicknames' are understandable to people who were not part of the group that created the nickname.</p><h1>Press continue to be redirected to Prolific. </h1>",,,740841,,132,html-button-response,,,
2996,foobar,,,,[],[],[],,0.0-0.0,,,,,True,,112,False,0,preload,,,
2996,foobar,,,,,,,,0.0-1.0,0,15131,," <center><img width=""300px"" src=""assets/stanford.png"" /></center><div id=""legal""></br>By answering the following questions, you are participating in a study being performed by cognitive scientists in the Stanford Department of Psychology. If you have questions about this research, please contact us at  <a href=""mailto://languagecoglab@gmail.com.""> languagecoglab@gmail.com</a>.You must be at least 18 years old to participate. Your participation in this research is voluntary. You may decline to answer any or all of the following questions. You may decline further participation, at any time, without adverse consequences. Your anonymity is assured; the researchers who have requested your participation will not receive any personal information about you. </div></br>",,,15246,,1,html-button-response,,,
2996,foobar,,,,,,,,0.0-2.0,0,53972,,"<h3>Please read these instructions carefully!</h3> </br><div id=""intro""> <p>In this task, you will see a <b>transcript of a conversation</b> some previous participants had where a <b>speaker identified one of the images to some listeners</b>.</p></br><center><img width=""600px"" src=""assets/demo.png"" /></center></br><p>Your goal is to <b>read the transcript</b> and <b>figure out which image</b> is being described! </p><p>You will <b>click the image</b> you think is being described, and then you will <b>find out if you were right</b>.<p><p>You will see <b>64 trials</b>. The image choices will stay the same, but the transcripts will come from different groups of people. Some of the transcripts may be much shorter or longer than others. Some of the descriptions may be hard to understand -- just take a guess if you are not sure.</p><p>You will get a bonus of <b>5 cents</b> for each image you get right! </p><p> <b>Note:</b> These descriptions came from real people and may contain inappropriate or offensive language. If you find a description inappropriate, please let us know via Prolific message or in the exit survey, so we can filter it out in the future.</p>",,,69217,,2,html-button-response,,,
2996,foobar,13054,False,B,,,,MM87KaCiwe9vRcvbi,0.0-3.0-0.0,1,[],I,,,"[{'role': 'speaker', 'text': 'bullhorn', 'playerId': '3DR3LKCnkxsbbDYdm'}]",82276,,3,spr-buttons,selection,[],
2996,foobar,,,,,,,,0.0-3.0-1.0,,[],,,,,83214,,4,spr-buttons,feedback,[],
2996,foobar,7659,False,J,,,,Z2WAkYpWiXwuGcdME,0.0-3.0-0.1,9,[],D,,,"[{'role': 'speaker', 'text': 'rectangle', 'playerId': 'R3cRgh4HmEtRsmQyp'}]",90876,,5,spr-buttons,selection,[],
2996,foobar,,,,,,,,0.0-3.0-1.1,,[],,,,,91789,,6,spr-buttons,feedback,[],
2996,foobar,10132,False,G,,,,LzNv7CD7gRuxpk7cQ,0.0-3.0-0.2,8,[],E,,,"[{'role': 'speaker', 'text': 'tango dancer', 'playerId': 'MrNX5Si499ovSY845'}]",101923,,7,spr-buttons,selection,[],
2996,foobar,,,,,,,,0.0-3.0-1.2,,[],,,,,102846,,8,spr-buttons,feedback,[],
2996,foobar,10693,False,H,,,,QeHxf8rJXN8MCSKYR,0.0-3.0-0.3,8,[],E,,,"[{'role': 'speaker', 'text': 'kneeler with feet not on show', 'playerId': 'NxLjuiDi5cuFnLeTt'}, {'role': 'listener', 'text': 'blob', 'playerId': 'ayGjv5rqNZ8Ruuo4P'}]",113541,,9,spr-buttons,selection,[],
2996,foobar,,,,,,,,0.0-3.0-1.3,,[],,,,,114468,,10,spr-buttons,feedback,[],
2996,foobar,15217,False,B,,,,ASJgHR2N8wCgN32cu,0.0-3.0-0.4,3,[],K,,,"[{'role': 'speaker', 'text': 'A person kneeling down, two triangle arms, head tilted down, facing to the right', 'playerId': 'YT2Nq7XZoMqoZoRX9'}]",129692,,11,spr-buttons,selection,[],
2996,foobar,,,,,,,,0.0-3.0-1.4,,[],,,,,130624,,12,spr-buttons,feedback,[],
2996,foobar,20316,True,E,,,,Aq5QevmQACnfqeuj4,0.0-3.0-0.5,8,[],E,,,"[{'role': 'speaker', 'text': 'the person is sat down and has something sticking out of the top of their head', 'playerId': 'ERSkt3845KGzpnN6o'}, {'role': 'speaker', 'text': ""it is the only one that hasn't got a square for a head"", 'playerId': 'ERSkt3845KGzpnN6o'}, {'role': 'speaker', 'text': 'it looks like they have a hat on', 'playerId': 'ERSkt3845KGzpnN6o'}]",150942,,13,spr-buttons,selection,[],
2996,foobar,,,,,,,,0.0-3.0-1.5,,[],,,,,151870,,14,spr-buttons,feedback,[],
2996,foobar,26156,True,L,,,,TfkrsqMn78kJbqqgg,0.0-3.0-0.6,5,[],L,,,"[{'role': 'speaker', 'text': 'lightning bolt shape legs arms facing to right', 'playerId': 'A42GqTLXDrrZm89yN'}]",178029,,15,spr-buttons,selection,[],
2996,foobar,,,,,,,,0.0-3.0-1.6,,[],,,,,178947,,16,spr-buttons,feedback,[],
2996,foobar,19053,False,I,,,,H8WzWCYTYHQr8QQiy,0.0-3.0-0.7,10,[],A,,,"[{'role': 'speaker', 'text': 'on one leg with two triangle arms pointing the same way, looks like a figure skater', 'playerId': 'noLFFX7u4tuMgAhYq'}, {'role': 'listener', 'text': 'looks like an r', 'playerId': '4ofXJ86c3SLnG4ASe'}, {'role': 'speaker', 'text': 'yes a r', 'playerId': 'noLFFX7u4tuMgAhYq'}]",197990,,17,spr-buttons,selection,[],
2996,foobar,,,,,,,,0.0-3.0-1.7,,[],,,,,198915,,18,spr-buttons,feedback,[],
2996,foobar,16703,False,J,,,,6ikro5aNu98qHGGFL,0.0-3.0-0.8,5,[],L,,,"[{'role': 'listener', 'text': 'we know ""flying"" ""skating"" and ""partially sitting""', 'playerId': 'NeeLki6vCQP4BXAQp'}, {'role': 'speaker', 'text': 'square kinda looking figure arm out further than leg facingn right diamod head', 'playerId': 'Mm4ut74JJKd55WcMT'}, {'role': 'listener', 'text': 'we should know ""kneeling"" and ""partially kneeling"" and ""bunny""', 'playerId': 'NeeLki6vCQP4BXAQp'}, {'role': 'listener', 'text': 'and this is the ""square""', 'playerId': 'NeeLki6vCQP4BXAQp'}]",215621,,19,spr-buttons,selection,[],
2996,foobar,,,,,,,,0.0-3.0-1.8,,[],,,,,216547,,20,spr-buttons,feedback,[],
2996,foobar,7952,False,F,,,,FEPXqBHpf4Q5CfCju,0.0-3.0-0.9,10,[],A,,,"[{'role': 'speaker', 'text': 'sitting with leg to the left', 'playerId': 'KChzeps4GeL2rFbEh'}]",224501,,21,spr-buttons,selection,[],
2996,foobar,,,,,,,,0.0-3.0-1.9,,[],,,,,225422,,22,spr-buttons,feedback,[],
2996,foobar,5143,True,C,,,,GpF4Ge9YCd7ih3DFr,0.0-3.0-0.10,4,[],C,,,"[{'role': 'speaker', 'text': 'flying ghost, no legs, two arms in the air', 'playerId': '9DEoh9BWkZFYxhECs'}]",230567,,23,spr-buttons,selection,[],
2996,foobar,,,,,,,,0.0-3.0-1.10,,[],,,,,231485,,24,spr-buttons,feedback,[],
2996,foobar,8424,True,A,,,,voSMQaG9H4nC4jy32,0.0-3.0-0.11,10,[],A,,,"[{'role': 'speaker', 'text': 'dancing guy nose downwards', 'playerId': 'xCczn7ZDHtYRWQE6W'}]",239912,,25,spr-buttons,selection,[],
2996,foobar,,,,,,,,0.0-3.0-1.11,,[],,,,,240838,,26,spr-buttons,feedback,[],
2996,foobar,5062,True,J,,,,sijMDqp4oocvXG8Sv,0.0-3.0-0.12,0,[],J,,,"[{'role': 'speaker', 'text': 'squarish one', 'playerId': 'FQQrSsuYhM8jdKhTz'}]",245901,,27,spr-buttons,selection,[],
2996,foobar,,,,,,,,0.0-3.0-1.12,,[],,,,,246818,,28,spr-buttons,feedback,[],
2996,foobar,19874,False,C,,,,JnYAkqq7mqk9Gxdse,0.0-3.0-0.13,1,[],I,,,"[{'role': 'speaker', 'text': 'the goalie diving left', 'playerId': 'tGBfoiq8WDic5rZrH'}]",266695,,29,spr-buttons,selection,[],
2996,foobar,,,,,,,,0.0-3.0-1.13,,[],,,,,267615,,30,spr-buttons,feedback,[],
2996,foobar,13768,True,A,,,,YLCrDGMMiennGjggY,0.0-3.0-0.14,10,[],A,,,"[{'role': 'speaker', 'text': 'the sad person with strange head', 'playerId': '9KnsNqjRjt4q7CtbN'}, {'role': 'speaker', 'text': 'diamond on the back, left leg in the air', 'playerId': '9KnsNqjRjt4q7CtbN'}]",281384,,31,spr-buttons,selection,[],
2996,foobar,,,,,,,,0.0-3.0-1.14,,[],,,,,282302,,32,spr-buttons,feedback,[],
2996,foobar,21206,False,B,,,,8vDbP6xD36MAFSAFC,0.0-3.0-0.15,9,[],D,,,"[{'role': 'speaker', 'text': 'square head facing right, kneeling, arms behind (looks like a wing) triangle out of head looking like a speech bubble', 'playerId': 'JPJgMw5EzQBQ6gw9a'}, {'role': 'speaker', 'text': 'small triangle feet on left', 'playerId': 'JPJgMw5EzQBQ6gw9a'}]",303510,,33,spr-buttons,selection,[],
2996,foobar,,,,,,,,0.0-3.0-1.15,,[],,,,,304431,,34,spr-buttons,feedback,[],
2996,foobar,17490,True,L,,,,4bDDi23d6D8SJkrgQ,0.0-3.0-0.16,5,[],L,,,"[{'role': 'speaker', 'text': 'a person with bend knees facing the the right', 'playerId': 'P5nFedWBmEvAmd8CD'}, {'role': 'speaker', 'text': 'and they have a triangle facing the right side', 'playerId': 'P5nFedWBmEvAmd8CD'}, {'role': 'speaker', 'text': 'their knees and bent in a zig zag', 'playerId': 'P5nFedWBmEvAmd8CD'}]",321923,,35,spr-buttons,selection,[],
2996,foobar,,,,,,,,0.0-3.0-1.16,,[],,,,,322846,,36,spr-buttons,feedback,[],
2996,foobar,22030,True,B,,,,oXTMu3q59e3nffGz3,0.0-3.0-0.17,2,[],B,,,"[{'role': 'speaker', 'text': 'angel', 'playerId': 'LTS4YALfJnHNGsMfu'}, {'role': 'speaker', 'text': 'hera - seal has got a little tail flick on left side', 'playerId': 'LTS4YALfJnHNGsMfu'}]",344879,,37,spr-buttons,selection,[],
2996,foobar,,,,,,,,0.0-3.0-1.17,,[],,,,,345805,,38,spr-buttons,feedback,[],
2996,foobar,11746,False,C,,,,FDXJ7stbQxKCkcKzv,0.0-3.0-0.18,11,[],G,,,"[{'role': 'speaker', 'text': 'Figure almost looks shot dead', 'playerId': 'qs9igjQTnJt7wfpyq'}, {'role': 'speaker', 'text': 'Diamond head', 'playerId': 'qs9igjQTnJt7wfpyq'}, {'role': 'listener', 'text': 'both arms raised', 'playerId': 'mywQnZtzE6E5yzwkE'}, {'role': 'listener', 'text': 'two arms up', 'playerId': 'Gebor7AaNSy3bp4Ch'}, {'role': 'speaker', 'text': 'Two arms raised up', 'playerId': 'qs9igjQTnJt7wfpyq'}, {'role': 'listener', 'text': 'leaning left', 'playerId': 'SFa7XF9tfzsrWHsR9'}, {'role': 'speaker', 'text': 'No legs', 'playerId': 'qs9igjQTnJt7wfpyq'}]",357553,,39,spr-buttons,selection,[],
2996,foobar,,,,,,,,0.0-3.0-1.18,,[],,,,,358480,,40,spr-buttons,feedback,[],
2996,foobar,13986,False,J,,,,7eWGPqmG35RrZoezF,0.0-3.0-0.19,2,[],B,,,"[{'role': 'speaker', 'text': 'kneeling pointing right', 'playerId': 'HcAY9mNwACmDrRN2A'}]",372469,,41,spr-buttons,selection,[],
2996,foobar,,,,,,,,0.0-3.0-1.19,,[],,,,,373384,,42,spr-buttons,feedback,[],
2996,foobar,31388,False,H,,,,znSiJdhs7sWk5xhgA,0.0-3.0-0.20,2,[],B,,,"[{'role': 'speaker', 'text': 'straight up body but curves to the right slightly at the bottom', 'playerId': 'HaYEtB56fe33ZSXjw'}, {'role': 'speaker', 'text': 'no arms or legs', 'playerId': 'HaYEtB56fe33ZSXjw'}, {'role': 'listener', 'text': 'do they look like they are going to do the splits', 'playerId': 'MJxZ4a3KWksjWMEYq'}, {'role': 'listener', 'text': 'hands out in front of it', 'playerId': '4fTnjYS9Cge7Tv7ou'}, {'role': 'listener', 'text': 'the metapod one', 'playerId': 'MJxZ4a3KWksjWMEYq'}, {'role': 'speaker', 'text': 'no hands, no arms', 'playerId': 'HaYEtB56fe33ZSXjw'}, {'role': 'listener', 'text': 'legs', 'playerId': 'y9i8sGWvbi53Zby2v'}, {'role': 'speaker', 'text': 'Almost hexagon body, but has a bit at the bottom right', 'playerId': 'HaYEtB56fe33ZSXjw'}]",404774,,43,spr-buttons,selection,[],
2996,foobar,,,,,,,,0.0-3.0-1.20,,[],,,,,405703,,44,spr-buttons,feedback,[],
2996,foobar,5471,True,L,,,,2gkxKTcPdQews5qTX,0.0-3.0-0.21,5,[],L,,,"[{'role': 'speaker', 'text': 'kneeling in zig zag pose hands pointing right', 'playerId': 'yN5pFmHQdR2zzStyt'}]",411175,,45,spr-buttons,selection,[],
2996,foobar,,,,,,,,0.0-3.0-1.21,,[],,,,,412097,,46,spr-buttons,feedback,[],
2996,foobar,6333,False,A,,,,pAtG6vt3AyaJypa2j,0.0-3.0-0.22,1,[],I,,,"[{'role': 'speaker', 'text': 'looks like a person walking, one leg on the ground, the other leg is in the air and to the left', 'playerId': 'kNihCF3o2LNDkwQs5'}]",418432,,47,spr-buttons,selection,[],
2996,foobar,,,,,,,,0.0-3.0-1.22,,[],,,,,419355,,48,spr-buttons,feedback,[],
2996,foobar,11557,False,I,,,,Z2WAkYpWiXwuGcdME,0.0-3.0-0.23,8,[],E,,,"[{'role': 'speaker', 'text': 'karate', 'playerId': 'R3cRgh4HmEtRsmQyp'}]",430913,,49,spr-buttons,selection,[],
2996,foobar,,,,,,,,0.0-3.0-1.23,,[],,,,,431829,,50,spr-buttons,feedback,[],
2996,foobar,6269,True,F,,,,ASJgHR2N8wCgN32cu,0.0-3.0-0.24,6,[],F,,,"[{'role': 'speaker', 'text': 'A person who looks depressed, sitting down with their knees bent at a 45 degree angle, their head is tilted downwards, they are facing to the left', 'playerId': 'YT2Nq7XZoMqoZoRX9'}]",438100,,51,spr-buttons,selection,[],
2996,foobar,,,,,,,,0.0-3.0-1.24,,[],,,,,439020,,52,spr-buttons,feedback,[],
2996,foobar,8967,False,E,,,,t3d4LuHZFazCzHhYq,0.0-3.0-0.25,2,[],B,,,"[{'role': 'speaker', 'text': 'Rabbit', 'playerId': 'MEzLvjsPcEa2JLSwn'}]",447988,,53,spr-buttons,selection,[],
2996,foobar,,,,,,,,0.0-3.0-1.25,,[],,,,,448896,,54,spr-buttons,feedback,[],
2996,foobar,23288,False,I,,,,iHNnNCnSAx2TYjDhf,0.0-3.0-0.26,0,[],J,,,"[{'role': 'speaker', 'text': 'This is like someone in a chicken outfit', 'playerId': '2ub9Fg5YrCita2F2y'}, {'role': 'speaker', 'text': 'or doing woga', 'playerId': '2ub9Fg5YrCita2F2y'}, {'role': 'listener', 'text': ""does it look like he's doing a karate kick to the right"", 'playerId': 'fj5hYTYAfRdgfohsG'}, {'role': 'speaker', 'text': 'diamond head, then the chicken beak facing left', 'playerId': '2ub9Fg5YrCita2F2y'}, {'role': 'listener', 'text': 'Does it have two triangles going left', 'playerId': 'ghuYrBDccmDDZc3QK'}, {'role': 'speaker', 'text': 'looks like a tail or someone standing on one leg with the other leg up behind them', 'playerId': '2ub9Fg5YrCita2F2y'}, {'role': 'listener', 'text': 'looks like a dinosaur :)', 'playerId': 'SLXXsJaRnhy9QdfeY'}, {'role': 'speaker', 'text': 'yes 2 triangles going left', 'playerId': '2ub9Fg5YrCita2F2y'}]",472185,,55,spr-buttons,selection,[],
2996,foobar,,,,,,,,0.0-3.0-1.26,,[],,,,,473110,,56,spr-buttons,feedback,[],
2996,foobar,4951,False,G,,,,wPKShK8DJjFJDPPC2,0.0-3.0-0.27,0,[],J,,,"[{'role': 'speaker', 'text': 'Square bunny ear, dog shaped other ear', 'playerId': '7873fQ46q5WbGoifc'}, {'role': 'speaker', 'text': 'NOT THE TRIANGLE bunny ears', 'playerId': '7873fQ46q5WbGoifc'}]",478063,,57,spr-buttons,selection,[],
2996,foobar,,,,,,,,0.0-3.0-1.27,,[],,,,,478985,,58,spr-buttons,feedback,[],
2996,foobar,3313,False,B,,,,QkKavPsKXNH5uJzrs,0.0-3.0-0.28,9,[],D,,,"[{'role': 'speaker', 'text': 'left foot', 'playerId': 'ySkkTvw6MWq2jN8sB'}]",482300,,59,spr-buttons,selection,[],
2996,foobar,,,,,,,,0.0-3.0-1.28,,[],,,,,483215,,60,spr-buttons,feedback,[],
2996,foobar,13641,True,D,,,,voSMQaG9H4nC4jy32,0.0-3.0-0.29,9,[],D,,,"[{'role': 'speaker', 'text': 'this one looks like a guy in a preacher robe with a tithe plate pointing to the left', 'playerId': 'xCczn7ZDHtYRWQE6W'}]",496858,,61,spr-buttons,selection,[],
2996,foobar,,,,,,,,0.0-3.0-1.29,,[],,,,,497784,,62,spr-buttons,feedback,[],
2996,foobar,17696,False,F,,,,t3d4LuHZFazCzHhYq,0.0-3.0-0.30,10,[],A,,,"[{'role': 'speaker', 'text': ""It's a man sitting down"", 'playerId': 'FJi5uaLA6m4NZFkNG'}, {'role': 'speaker', 'text': 'Facing left', 'playerId': 'FJi5uaLA6m4NZFkNG'}, {'role': 'speaker', 'text': 'No arms', 'playerId': 'FJi5uaLA6m4NZFkNG'}, {'role': 'speaker', 'text': 'Triangle foot with toe pointing up', 'playerId': 'FJi5uaLA6m4NZFkNG'}, {'role': 'speaker', 'text': 'Head kinda bowing downwards', 'playerId': 'FJi5uaLA6m4NZFkNG'}]",515482,,63,spr-buttons,selection,[],
2996,foobar,,,,,,,,0.0-3.0-1.30,,[],,,,,516400,,64,spr-buttons,feedback,[],
2996,foobar,5411,False,K,,,,TswNa6hfiGwkWHMgB,0.0-3.0-0.31,2,[],B,,,"[{'role': 'speaker', 'text': 'boy sitting on knees with feet behind him and hands out', 'playerId': 'BCjiqev2Kt7Lze3nQ'}]",521813,,65,spr-buttons,selection,[],
2996,foobar,,,,,,,,0.0-3.0-1.31,,[],,,,,522728,,66,spr-buttons,feedback,[],
2996,foobar,17042,False,B,,,,HQCyESfw7Bwg5LM3Q,0.0-3.0-0.32,11,[],G,,,"[{'role': 'speaker', 'text': 'person on their knees one arm up and out to the right, the other to the left one leg stretched out behind them head facing downwards', 'playerId': 'ijqA9EF3MtMyzT6Ts'}]",539772,,67,spr-buttons,selection,[],
2996,foobar,,,,,,,,0.0-3.0-1.32,,[],,,,,540693,,68,spr-buttons,feedback,[],
2996,foobar,5429,False,K,,,,LsnHGPbRLPabWRBSi,0.0-3.0-0.33,5,[],L,,,"[{'role': 'speaker', 'text': 'ok it looks like a woman in a dress praying', 'playerId': '8E5cNEk3uBc5sktkX'}, {'role': 'listener', 'text': 'Aimed right', 'playerId': '2RCjqweynJHvehBGo'}, {'role': 'speaker', 'text': 'facing right', 'playerId': '8E5cNEk3uBc5sktkX'}, {'role': 'listener', 'text': 'facing left', 'playerId': 'bhgdLERsJZsyygLSq'}, {'role': 'listener', 'text': 'Kneeling', 'playerId': '2RCjqweynJHvehBGo'}, {'role': 'listener', 'text': 'not the crouching one right', 'playerId': 'bohdK5Fufz9C4SewN'}, {'role': 'speaker', 'text': 'kneeling', 'playerId': '8E5cNEk3uBc5sktkX'}, {'role': 'listener', 'text': 'the one whose left side is like a rectangle', 'playerId': 'bhgdLERsJZsyygLSq'}, {'role': 'listener', 'text': 'it looks similar to the other praying one right', 'playerId': 'bohdK5Fufz9C4SewN'}, {'role': 'listener', 'text': 'or is it the one that looks like a swaddled baby', 'playerId': 'bhgdLERsJZsyygLSq'}, {'role': 'listener', 'text': 'Kneeling, arms to the right, upright', 'playerId': '2RCjqweynJHvehBGo'}, {'role': 'speaker', 'text': ""but it's a triangle"", 'playerId': '8E5cNEk3uBc5sktkX'}, {'role': 'speaker', 'text': 'but kinda a rectangle', 'playerId': '8E5cNEk3uBc5sktkX'}, {'role': 'speaker', 'text': 'her hands are straight out', 'playerId': '8E5cNEk3uBc5sktkX'}]",546124,,69,spr-buttons,selection,[],
2996,foobar,,,,,,,,0.0-3.0-1.33,,[],,,,,547054,,70,spr-buttons,feedback,[],
2996,foobar,9341,False,E,,,,PF2Wo9cXvN4eYEgQm,0.0-3.0-0.34,3,[],K,,,"[{'role': 'speaker', 'text': 'sitting down facing right with head down and 2 triangles on their head', 'playerId': '8Dpsmcfr85fEhvbo5'}]",556397,,71,spr-buttons,selection,[],
2996,foobar,,,,,,,,0.0-3.0-1.34,,[],,,,,557311,,72,spr-buttons,feedback,[],
2996,foobar,9822,False,L,,,,GPXXTJBweJggYMYrF,0.0-3.0-0.35,3,[],K,,,"[{'role': 'speaker', 'text': 'praying slim one facing right no bumps on the back', 'playerId': 'ZLmRMKZzibrTNB5sv'}]",567135,,73,spr-buttons,selection,[],
2996,foobar,,,,,,,,0.0-3.0-1.35,,[],,,,,568052,,74,spr-buttons,feedback,[],
2996,foobar,13287,False,B,,,,Z2WAkYpWiXwuGcdME,0.0-3.0-0.36,5,[],L,,,"[{'role': 'speaker', 'text': 'arms in air kneeling', 'playerId': 'R3cRgh4HmEtRsmQyp'}]",581342,,75,spr-buttons,selection,[],
2996,foobar,,,,,,,,0.0-3.0-1.36,,[],,,,,582257,,76,spr-buttons,feedback,[],
2996,foobar,14756,False,K,,,,g65Cv6YtLsdvZiRSX,0.0-3.0-0.37,5,[],L,,,"[{'role': 'speaker', 'text': 'kneeling, facing right, feet flicked to the left', 'playerId': 'ca7oTz8teDvaTaBTu'}]",597014,,77,spr-buttons,selection,[],
2996,foobar,,,,,,,,0.0-3.0-1.37,,[],,,,,597923,,78,spr-buttons,feedback,[],
2996,foobar,14848,True,C,,,,7iF9MxsD2YYEcq3uq,0.0-3.0-0.38,4,[],C,,,"[{'role': 'speaker', 'text': 'both hands in the air to the sides', 'playerId': 'SpSp42ZaBDB3pmoEx'}, {'role': 'speaker', 'text': 'no legs', 'playerId': 'SpSp42ZaBDB3pmoEx'}, {'role': 'listener', 'text': 'almost like a goalkeeper saving a goal', 'playerId': 'v7mArTXRTqKrndoDF'}, {'role': 'speaker', 'text': 'they are leaning left', 'playerId': 'SpSp42ZaBDB3pmoEx'}]",612774,,79,spr-buttons,selection,[],
2996,foobar,,,,,,,,0.0-3.0-1.38,,[],,,,,613693,,80,spr-buttons,feedback,[],
2996,foobar,19151,False,L,,,,DYwdcHHmdgpLTuJ3S,0.0-3.0-0.39,2,[],B,,,"[{'role': 'speaker', 'text': 'it looks like someone slightly on their knees praying with their arms pointed forward the bend in the knee is slightly angled to the right', 'playerId': 'ugJJgEnjeZXTw9TRP'}]",632847,,81,spr-buttons,selection,[],
2996,foobar,,,,,,,,0.0-3.0-1.39,,[],,,,,633775,,82,spr-buttons,feedback,[],
2996,foobar,5965,True,I,,,,oJFB5dkDNtRxZNzec,0.0-3.0-0.40,1,[],I,,,"[{'role': 'speaker', 'text': 'person with leg behind them standing', 'playerId': 'q7PZmgpyPo6hEuEnt'}]",639742,,83,spr-buttons,selection,[],
2996,foobar,,,,,,,,0.0-3.0-1.40,,[],,,,,640668,,84,spr-buttons,feedback,[],
2996,foobar,10856,True,B,,,,TNRYprBpNcgCrb2HF,0.0-3.0-0.41,2,[],B,,,"[{'role': 'speaker', 'text': 'Ponytail triangle image', 'playerId': 'ZBAXeNd9hoDrFHWhf'}]",651527,,85,spr-buttons,selection,[],
2996,foobar,,,,,,,,0.0-3.0-1.41,,[],,,,,652441,,86,spr-buttons,feedback,[],
2996,foobar,13337,True,K,,,,rTdgorcZpRzAdoR3G,0.0-3.0-0.42,3,[],K,,,"[{'role': 'speaker', 'text': 'Looks like a kneeling man with a bowl in his hand looking to your right', 'playerId': 'qXfAnzBoZ64SMpq3Q'}]",665781,,87,spr-buttons,selection,[],
2996,foobar,,,,,,,,0.0-3.0-1.42,,[],,,,,666711,,88,spr-buttons,feedback,[],
2996,foobar,13529,False,A,,,,5ygBYimhnLq4Bcb2N,0.0-3.0-0.43,1,[],I,,,"[{'role': 'speaker', 'text': 'The chicken dance one that Hera described', 'playerId': 'bMkZ9C5DEH9p5Bn6o'}, {'role': 'speaker', 'text': 'One food in the air, one on the ground Facing right', 'playerId': 'bMkZ9C5DEH9p5Bn6o'}, {'role': 'listener', 'text': 'head top right', 'playerId': 'PuxjeeRSsr2zsPEGM'}, {'role': 'speaker', 'text': 'The feet face left and one foot is up to the knee level The head faces to the right They have the arm on the left up in the air, with the elbow the same height as the top of head', 'playerId': 'bMkZ9C5DEH9p5Bn6o'}]",680242,,89,spr-buttons,selection,[],
2996,foobar,,,,,,,,0.0-3.0-1.43,,[],,,,,681164,,90,spr-buttons,feedback,[],
2996,foobar,12482,False,G,,,,of4gY8Bu37PbmkPee,0.0-3.0-0.44,9,[],D,,,"[{'role': 'speaker', 'text': 'bottom is straight', 'playerId': 'HGiZGbRSXTDaGdsfH'}, {'role': 'speaker', 'text': 'small triangle hanging bottom left', 'playerId': 'HGiZGbRSXTDaGdsfH'}, {'role': 'speaker', 'text': 'top has a square', 'playerId': 'HGiZGbRSXTDaGdsfH'}]",693648,,91,spr-buttons,selection,[],
2996,foobar,,,,,,,,0.0-3.0-1.44,,[],,,,,694569,,92,spr-buttons,feedback,[],
2996,foobar,16030,False,C,,,,AdawMQbBwh5vdpoKg,0.0-3.0-0.45,0,[],J,,,"[{'role': 'speaker', 'text': 'ok left like square', 'playerId': 'zRqzCeYGLBGeavpiS'}, {'role': 'speaker', 'text': 'right hand like triangle pointing up', 'playerId': 'zRqzCeYGLBGeavpiS'}, {'role': 'speaker', 'text': 'square head', 'playerId': 'zRqzCeYGLBGeavpiS'}, {'role': 'speaker', 'text': 'tilting to left 45 degrees', 'playerId': 'zRqzCeYGLBGeavpiS'}]",710600,,93,spr-buttons,selection,[],
2996,foobar,,,,,,,,0.0-3.0-1.45,,[],,,,,711520,,94,spr-buttons,feedback,[],
2996,foobar,12393,False,H,,,,S229J9M75mRCjm23C,0.0-3.0-0.46,6,[],F,,,"[{'role': 'speaker', 'text': 'diamond on the head in the centre with the bottom turning to the right', 'playerId': 'z3Sm7qarDfdfnz8RN'}, {'role': 'speaker', 'text': 'diamond in the centre then what looks like shoulders', 'playerId': 'z3Sm7qarDfdfnz8RN'}, {'role': 'speaker', 'text': 'then straight down both sides', 'playerId': 'z3Sm7qarDfdfnz8RN'}]",723915,,95,spr-buttons,selection,[],
2996,foobar,,,,,,,,0.0-3.0-1.46,,[],,,,,724840,,96,spr-buttons,feedback,[],
2996,foobar,5049,True,F,,,,3NRHD2hCEgJ74Q4b2,0.0-3.0-0.47,6,[],F,,,"[{'role': 'speaker', 'text': 'person sitting down facing left', 'playerId': 'eeCGATqzhP6qdRBP6'}]",729891,,97,spr-buttons,selection,[],
2996,foobar,,,,,,,,0.0-3.0-1.47,,[],,,,,730817,,98,spr-buttons,feedback,[],
2996,foobar,3024,True,C,,,,p8CZhTq5mEiuypAfk,0.0-3.0-0.48,4,[],C,,,"[{'role': 'speaker', 'text': 'goalie', 'playerId': 'mGtkMxGiXXs6j2cm3'}]",733843,,99,spr-buttons,selection,[],
2996,foobar,,,,,,,,0.0-3.0-1.48,,[],,,,,734765,,100,spr-buttons,feedback,[],
2996,foobar,13113,False,E,,,,PCRgk3gvjjXXkMKqF,0.0-3.0-0.49,11,[],G,,,"[{'role': 'speaker', 'text': 'Man facing right, looking down, triangle dog ears', 'playerId': 'HrxvJAFPtJCGLf2Ez'}]",747881,,101,spr-buttons,selection,[],
2996,foobar,,,,,,,,0.0-3.0-1.49,,[],,,,,748803,,102,spr-buttons,feedback,[],
2996,foobar,8242,False,F,,,,omQAFChFFHAuAbPT3,0.0-3.0-0.50,9,[],D,,,"[{'role': 'speaker', 'text': 'Facing to the right, in sitting position', 'playerId': 'faazMWGBB5FbpcYAT'}, {'role': 'speaker', 'text': 'can see foot extended to the left, sorry character facing LEFT', 'playerId': 'faazMWGBB5FbpcYAT'}]",757047,,103,spr-buttons,selection,[],
2996,foobar,,,,,,,,0.0-3.0-1.50,,[],,,,,757975,,104,spr-buttons,feedback,[],
2996,foobar,16525,True,B,,,,idfdowLZKpkzB8ypa,0.0-3.0-0.51,2,[],B,,,"[{'role': 'speaker', 'text': 'mouse with big ears', 'playerId': 'hWLbCy7ApJfJBtYmh'}]",774503,,105,spr-buttons,selection,[],
2996,foobar,,,,,,,,0.0-3.0-1.51,,[],,,,,775426,,106,spr-buttons,feedback,[],
2996,foobar,22120,False,G,,,,GGz5Zb58tHpG8X5z7,0.0-3.0-0.52,8,[],E,,,"[{'role': 'speaker', 'text': 'square head tilted left with obscure shape sitting legs in front to left with tail facing down on right', 'playerId': 'zMrgbynyhLhqT5X3C'}]",797548,,107,spr-buttons,selection,[],
2996,foobar,,,,,,,,0.0-3.0-1.52,,[],,,,,798471,,108,spr-buttons,feedback,[],
2996,foobar,4716,False,A,,,,3AkQAYjgybC5xKfov,0.0-3.0-0.53,1,[],I,,,"[{'role': 'speaker', 'text': 'Guy on one leg, facing the left, head tilted back', 'playerId': 'D4Qs3dPH4woAmLper'}, {'role': 'speaker', 'text': 'Arms look like an up arrow', 'playerId': 'D4Qs3dPH4woAmLper'}]",803190,,109,spr-buttons,selection,[],
2996,foobar,,,,,,,,0.0-3.0-1.53,,[],,,,,804117,,110,spr-buttons,feedback,[],
2996,foobar,6251,True,L,,,,rTdgorcZpRzAdoR3G,0.0-3.0-0.54,5,[],L,,,"[{'role': 'speaker', 'text': 'facing right knees bent slightly holding a bowl', 'playerId': 'cy6HigPTSWTac7Xqy'}]",810371,,111,spr-buttons,selection,[],
2996,foobar,,,,,,,,0.0-3.0-1.54,,[],,,,,811292,,112,spr-buttons,feedback,[],
2996,foobar,9478,False,F,,,,MR4xnrE8c4oCHmZX2,0.0-3.0-0.55,11,[],G,,,"[{'role': 'speaker', 'text': 'left facing, sitting', 'playerId': 'SzgQCuHiAotKNJLPk'}]",820773,,113,spr-buttons,selection,[],
2996,foobar,,,,,,,,0.0-3.0-1.55,,[],,,,,821700,,114,spr-buttons,feedback,[],
2996,foobar,7513,True,D,,,,hu2zy5uGrN4qJ7qqe,0.0-3.0-0.56,9,[],D,,,"[{'role': 'speaker', 'text': ""arms and feet pointing left, looks like he's reading a book"", 'playerId': 'xwCpnpj4eoCiFYeCE'}, {'role': 'speaker', 'text': 'nothing on right side', 'playerId': 'xwCpnpj4eoCiFYeCE'}]",829214,,115,spr-buttons,selection,[],
2996,foobar,,,,,,,,0.0-3.0-1.56,,[],,,,,830130,,116,spr-buttons,feedback,[],
2996,foobar,27506,False,A,,,,oHLkd73zMwDSpso8k,0.0-3.0-0.57,3,[],K,,,"[{'role': 'speaker', 'text': 'two feet, one on ground and one kicking, both pointed left, head pointed right', 'playerId': 'MJnDMAZWWBXN6pmrK'}]",857637,,117,spr-buttons,selection,[],
2996,foobar,,,,,,,,0.0-3.0-1.57,,[],,,,,858565,,118,spr-buttons,feedback,[],
2996,foobar,16842,False,E,,,,Tg2JqdT9ugXdkqWsC,0.0-3.0-0.58,4,[],C,,,"[{'role': 'speaker', 'text': 'This one looks like a a guy wearing a bunny head, square head, two triangles are ears looking down to the right', 'playerId': '7ZT3RAxSFjc39CDXe'}, {'role': 'speaker', 'text': 'Body is sitting down', 'playerId': '7ZT3RAxSFjc39CDXe'}, {'role': 'speaker', 'text': 'Or look for a square with two triangles on top', 'playerId': '7ZT3RAxSFjc39CDXe'}]",875409,,119,spr-buttons,selection,[],
2996,foobar,,,,,,,,0.0-3.0-1.58,,[],,,,,876333,,120,spr-buttons,feedback,[],
2996,foobar,3489,True,C,,,,93ZvRh5AYPNeTJxjv,0.0-3.0-0.59,4,[],C,,,"[{'role': 'speaker', 'text': 'both arms up in the air', 'playerId': 'dTAmMQ6Zw5AbRzRiT'}, {'role': 'speaker', 'text': 'diamond head', 'playerId': 'dTAmMQ6Zw5AbRzRiT'}, {'role': 'speaker', 'text': 'slanted body', 'playerId': 'dTAmMQ6Zw5AbRzRiT'}, {'role': 'listener', 'text': 'kind of like a bird', 'playerId': 'EigvT8eA8dqhuxwk6'}, {'role': 'listener', 'text': 'leaning to left', 'playerId': 'eJA6FpeTKabMYR8rb'}, {'role': 'speaker', 'text': 'leaning to the left', 'playerId': 'dTAmMQ6Zw5AbRzRiT'}, {'role': 'listener', 'text': 'open arms', 'playerId': 'dyTDDFiSuSCvwZD9b'}, {'role': 'listener', 'text': 'no legs right', 'playerId': '5a7w57CMsYw6nbJgN'}, {'role': 'speaker', 'text': 'no legs', 'playerId': 'dTAmMQ6Zw5AbRzRiT'}]",879826,,121,spr-buttons,selection,[],
2996,foobar,,,,,,,,0.0-3.0-1.59,,[],,,,,880761,,122,spr-buttons,feedback,[],
2996,foobar,3783,False,J,,,,2Csg2Snzrpkud2YRi,0.0-3.0-0.60,3,[],K,,,"[{'role': 'speaker', 'text': 'diamond on flat top', 'playerId': 'zyXatFB2smLy5NLCL'}]",884546,,123,spr-buttons,selection,[],
2996,foobar,,,,,,,,0.0-3.0-1.60,,[],,,,,885474,,124,spr-buttons,feedback,[],
2996,foobar,2673,True,F,,,,4eigY5GthWZfxug8D,0.0-3.0-0.61,6,[],F,,,"[{'role': 'speaker', 'text': 'sad man with poncho', 'playerId': 'T8RuPGkjXkXWtsHrf'}, {'role': 'speaker', 'text': 'feet pointing left', 'playerId': 'T8RuPGkjXkXWtsHrf'}, {'role': 'listener', 'text': 'knees up', 'playerId': 'W2FcmbCnXZFmMLy9v'}, {'role': 'listener', 'text': 'sad boi', 'playerId': 'W2FcmbCnXZFmMLy9v'}]",888148,,125,spr-buttons,selection,[],
2996,foobar,,,,,,,,0.0-3.0-1.61,,[],,,,,889070,,126,spr-buttons,feedback,[],
2996,foobar,2726,True,I,,,,2928FF7GcrkeFiDkh,0.0-3.0-0.62,1,[],I,,,"[{'role': 'speaker', 'text': 'figure skater', 'playerId': '5L7PZWTLhnYMGQE8b'}]",891798,,127,spr-buttons,selection,[],
2996,foobar,,,,,,,,0.0-3.0-1.62,,[],,,,,892717,,128,spr-buttons,feedback,[],
2996,foobar,9231,False,L,,,,xvPneq3RbziGdEArC,0.0-3.0-0.63,2,[],B,,,"[{'role': 'speaker', 'text': 'Squatting', 'playerId': 'yFk7LEDg8Edgyx5Gd'}]",901946,,129,spr-buttons,selection,[],
2996,foobar,,,,,,,,0.0-3.0-1.63,,[],,,,,902869,,130,spr-buttons,feedback,[],
2996,foobar,,,,,,,,0.0-4.0,"{'other': '', 'errors': 'no', 'length': 'it was just right', 'interface': 'not that i can think of', 'understand': 'yes'}",46628,,,,,949529,,131,survey-text,,,
2996,foobar,,,,,,,,0.0-5.0,0,7310,,"<h2>Many thanks for participating!</h2><p>We are generally interested in how people form conventions, such as shared 'nicknames' for images. Here, we are studying when these shared 'nicknames' are understandable to people who were not part of the group that created the nickname.</p><h1>Press continue to be redirected to Prolific. </h1>",,,956842,,132,html-button-response,,,
3042,foobar,,,,[],[],[],,0.0-0.0,,,,,True,,192,False,0,preload,,,
3042,foobar,,,,,,,,0.0-1.0,0,9782,," <center><img width=""300px"" src=""assets/stanford.png"" /></center><div id=""legal""></br>By answering the following questions, you are participating in a study being performed by cognitive scientists in the Stanford Department of Psychology. If you have questions about this research, please contact us at  <a href=""mailto://languagecoglab@gmail.com.""> languagecoglab@gmail.com</a>.You must be at least 18 years old to participate. Your participation in this research is voluntary. You may decline to answer any or all of the following questions. You may decline further participation, at any time, without adverse consequences. Your anonymity is assured; the researchers who have requested your participation will not receive any personal information about you. </div></br>",,,9978,,1,html-button-response,,,
3042,foobar,,,,,,,,0.0-2.0,0,24715,,"<h3>Please read these instructions carefully!</h3> </br><div id=""intro""> <p>In this task, you will see a <b>transcript of a conversation</b> some previous participants had where a <b>speaker identified one of the images to some listeners</b>.</p></br><center><img width=""600px"" src=""assets/demo.png"" /></center></br><p>Your goal is to <b>read the transcript</b> and <b>figure out which image</b> is being described! </p><p>You will <b>click the image</b> you think is being described, and then you will <b>find out if you were right</b>.<p><p>You will see <b>64 trials</b>. The image choices will stay the same, but the transcripts will come from different groups of people. Some of the transcripts may be much shorter or longer than others. Some of the descriptions may be hard to understand -- just take a guess if you are not sure.</p><p>You will get a bonus of <b>5 cents</b> for each image you get right! </p><p> <b>Note:</b> These descriptions came from real people and may contain inappropriate or offensive language. If you find a description inappropriate, please let us know via Prolific message or in the exit survey, so we can filter it out in the future.</p>",,,34695,,2,html-button-response,,,
3042,foobar,16354,True,I,,,,6TPknLpCmx5X9X572,0.0-3.0-0.0,11,[],I,,,"[{'role': 'speaker', 'text': 'A person with triangles for his body ice skating', 'playerId': 'QdpCSDuYmuT3niXiK'}]",51053,,3,spr-buttons,selection,[],
3042,foobar,,,,,,,,0.0-3.0-1.0,,[],,,,,51975,,4,spr-buttons,feedback,[],
3042,foobar,10788,True,E,,,,PF2Wo9cXvN4eYEgQm,0.0-3.0-0.1,3,[],E,,,"[{'role': 'speaker', 'text': 'sitting down facing right with head down and 2 triangles on their head', 'playerId': '8Dpsmcfr85fEhvbo5'}]",62765,,5,spr-buttons,selection,[],
3042,foobar,,,,,,,,0.0-3.0-1.1,,[],,,,,63688,,6,spr-buttons,feedback,[],
3042,foobar,24835,False,B,,,,TswNa6hfiGwkWHMgB,0.0-3.0-0.2,5,[],G,,,"[{'role': 'speaker', 'text': 'girl with triangle hat on back of net with palms and feet extended', 'playerId': 'BCjiqev2Kt7Lze3nQ'}, {'role': 'speaker', 'text': '*neck', 'playerId': 'BCjiqev2Kt7Lze3nQ'}, {'role': 'speaker', 'text': 'She has her hands out in front of her', 'playerId': 'BCjiqev2Kt7Lze3nQ'}]",88527,,7,spr-buttons,selection,[],
3042,foobar,,,,,,,,0.0-3.0-1.2,,[],,,,,89441,,8,spr-buttons,feedback,[],
3042,foobar,22277,True,I,,,,K7iDK8xmfJbE9RZZE,0.0-3.0-0.3,11,[],I,,,"[{'role': 'speaker', 'text': 'Standing with one leg hands facing left', 'playerId': 'T6LMYkwKmKsFsFzre'}, {'role': 'listener', 'text': 'is one leg pointing backwards', 'playerId': 'LPvai2ptChL92dKEQ'}, {'role': 'listener', 'text': 'at an angle or straight', 'playerId': 'q3QkkAc5WnzHzSJSe'}, {'role': 'speaker', 'text': 'straight', 'playerId': 'T6LMYkwKmKsFsFzre'}]",111719,,9,spr-buttons,selection,[],
3042,foobar,,,,,,,,0.0-3.0-1.3,,[],,,,,112632,,10,spr-buttons,feedback,[],
3042,foobar,6728,True,L,,,,JnYAkqq7mqk9Gxdse,0.0-3.0-0.4,7,[],L,,,"[{'role': 'speaker', 'text': 'facing right **original** man praying', 'playerId': 'KgdEYahjHpGSFCw4r'}]",119361,,11,spr-buttons,selection,[],
3042,foobar,,,,,,,,0.0-3.0-1.4,,[],,,,,120286,,12,spr-buttons,feedback,[],
3042,foobar,9313,False,A,,,,oJFB5dkDNtRxZNzec,0.0-3.0-0.5,7,[],L,,,"[{'role': 'speaker', 'text': 'person facing left with leg out in front', 'playerId': 'q7PZmgpyPo6hEuEnt'}]",129601,,13,spr-buttons,selection,[],
3042,foobar,787,,,,,,,0.0-3.0-1.5,6,[],,,,,130390,,14,spr-buttons,feedback,[],
3042,foobar,6621,False,D,,,,3Sj3XTKmk9Rqe4Bim,0.0-3.0-0.6,8,[],H,,,"[{'role': 'speaker', 'text': 'priest or pope', 'playerId': 'xGudhNiRmy2YuaHzK'}]",137012,,15,spr-buttons,selection,[],
3042,foobar,,,,,,,,0.0-3.0-1.6,,[],,,,,137929,,16,spr-buttons,feedback,[],
3042,foobar,5028,True,F,,,,qvcePeQSJ7k2HTcJt,0.0-3.0-0.7,2,[],F,,,"[{'role': 'speaker', 'text': 'slumped man', 'playerId': 'arByDDp6uQRRyQPdZ'}, {'role': 'speaker', 'text': 'facing left', 'playerId': 'arByDDp6uQRRyQPdZ'}, {'role': 'speaker', 'text': 'knees up', 'playerId': 'arByDDp6uQRRyQPdZ'}, {'role': 'speaker', 'text': 'toes up', 'playerId': 'arByDDp6uQRRyQPdZ'}]",142958,,17,spr-buttons,selection,[],
3042,foobar,,,,,,,,0.0-3.0-1.7,,[],,,,,143875,,18,spr-buttons,feedback,[],
3042,foobar,6730,True,A,,,,pAtG6vt3AyaJypa2j,0.0-3.0-0.8,6,[],A,,,"[{'role': 'speaker', 'text': 'looks like a person walking, one leg on the ground, the other leg is in the air and to the left', 'playerId': 'kNihCF3o2LNDkwQs5'}]",150606,,19,spr-buttons,selection,[],
3042,foobar,,,,,,,,0.0-3.0-1.8,,[],,,,,151516,,20,spr-buttons,feedback,[],
3042,foobar,9699,False,G,,,,FmuScBvZuEj2zegE2,0.0-3.0-0.9,2,[],F,,,"[{'role': 'speaker', 'text': 'belly up guy', 'playerId': 'pyBP4wTvPc2uhWfZ9'}]",161217,,21,spr-buttons,selection,[],
3042,foobar,,,,,,,,0.0-3.0-1.9,,[],,,,,162139,,22,spr-buttons,feedback,[],
3042,foobar,6760,False,H,,,,QeHxf8rJXN8MCSKYR,0.0-3.0-0.10,0,[],B,,,"[{'role': 'speaker', 'text': 'kneeler with feet not on show', 'playerId': 'NxLjuiDi5cuFnLeTt'}, {'role': 'listener', 'text': 'blob', 'playerId': 'ayGjv5rqNZ8Ruuo4P'}]",168900,,23,spr-buttons,selection,[],
3042,foobar,,,,,,,,0.0-3.0-1.10,,[],,,,,169811,,24,spr-buttons,feedback,[],
3042,foobar,13874,True,L,,,,ogPZPPCKpGn4votMa,0.0-3.0-0.11,7,[],L,,,"[{'role': 'speaker', 'text': 'looking right with knees kinda bent with hand out in front', 'playerId': 'fLSfDEdkLomjBKJ4E'}, {'role': 'speaker', 'text': 'diamond head', 'playerId': 'fLSfDEdkLomjBKJ4E'}, {'role': 'listener', 'text': 'is it kinda kneeling', 'playerId': 'Y3ATEvaw2Ex9TyTaM'}, {'role': 'speaker', 'text': 'yes looks like its about to kneel', 'playerId': 'fLSfDEdkLomjBKJ4E'}]",183688,,25,spr-buttons,selection,[],
3042,foobar,,,,,,,,0.0-3.0-1.11,,[],,,,,184596,,26,spr-buttons,feedback,[],
3042,foobar,24610,False,G,,,,rshQ6tYBS22PNQeTe,0.0-3.0-0.12,11,[],I,,,"[{'role': 'speaker', 'text': 'yoga pose - one leg behind, facing rightwards, arm up in air, smaller leg foot in front on right side', 'playerId': 'MgJ37EC6d5m8bs8h7'}, {'role': 'speaker', 'text': 'head thrown back', 'playerId': 'MgJ37EC6d5m8bs8h7'}, {'role': 'listener', 'text': 'like a shoe', 'playerId': '4h6mj5Yg8BuRPDncp'}, {'role': 'speaker', 'text': 'yeah kind like a boot I guess', 'playerId': 'MgJ37EC6d5m8bs8h7'}, {'role': 'listener', 'text': 'head thrown back to the left', 'playerId': '4h6mj5Yg8BuRPDncp'}, {'role': 'listener', 'text': 'yep call that the boot', 'playerId': '4h6mj5Yg8BuRPDncp'}]",209208,,27,spr-buttons,selection,[],
3042,foobar,,,,,,,,0.0-3.0-1.12,,[],,,,,210120,,28,spr-buttons,feedback,[],
3042,foobar,15929,True,E,,,,2yTRgeWp8WH65rQQq,0.0-3.0-0.13,3,[],E,,,"[{'role': 'speaker', 'text': 'triangle base that goes into a square, with the two triangles on top', 'playerId': '6orNN6e8XB9vh277r'}]",226050,,29,spr-buttons,selection,[],
3042,foobar,,,,,,,,0.0-3.0-1.13,,[],,,,,226964,,30,spr-buttons,feedback,[],
3042,foobar,12924,False,G,,,,GpF4Ge9YCd7ih3DFr,0.0-3.0-0.14,6,[],A,,,"[{'role': 'speaker', 'text': 'head tilted to the right of body', 'playerId': 'cjtnTXrerxbK7pi39'}, {'role': 'speaker', 'text': 'arm and legs forming C shape', 'playerId': 'cjtnTXrerxbK7pi39'}, {'role': 'speaker', 'text': 'on right side', 'playerId': 'cjtnTXrerxbK7pi39'}, {'role': 'speaker', 'text': 'big left leg flat on bottom', 'playerId': 'cjtnTXrerxbK7pi39'}]",239889,,31,spr-buttons,selection,[],
3042,foobar,,,,,,,,0.0-3.0-1.14,,[],,,,,240798,,32,spr-buttons,feedback,[],
3042,foobar,8321,False,K,,,,s3guGBwvgJRQvf9vF,0.0-3.0-0.15,3,[],E,,,"[{'role': 'speaker', 'text': ""Woman kneeling holding tray to right with heels up Two squares heads'"", 'playerId': 'NtboANZQQGp7vhzos'}]",249121,,33,spr-buttons,selection,[],
3042,foobar,,,,,,,,0.0-3.0-1.15,,[],,,,,250034,,34,spr-buttons,feedback,[],
3042,foobar,7147,False,B,,,,idfdowLZKpkzB8ypa,0.0-3.0-0.16,3,[],E,,,"[{'role': 'speaker', 'text': 'mouse with big ears', 'playerId': 'hWLbCy7ApJfJBtYmh'}, {'role': 'listener', 'text': 'not the rabbit', 'playerId': 'TBeeYmzuYM6Tjf43b'}]",257182,,35,spr-buttons,selection,[],
3042,foobar,,,,,,,,0.0-3.0-1.16,,[],,,,,258097,,36,spr-buttons,feedback,[],
3042,foobar,11605,True,F,,,,omQAFChFFHAuAbPT3,0.0-3.0-0.17,2,[],F,,,"[{'role': 'speaker', 'text': 'Facing to the right, in sitting position', 'playerId': 'faazMWGBB5FbpcYAT'}, {'role': 'speaker', 'text': 'can see foot extended to the left, sorry character facing LEFT', 'playerId': 'faazMWGBB5FbpcYAT'}]",269704,,37,spr-buttons,selection,[],
3042,foobar,,,,,,,,0.0-3.0-1.17,,[],,,,,270614,,38,spr-buttons,feedback,[],
3042,foobar,6967,True,I,,,,2Csg2Snzrpkud2YRi,0.0-3.0-0.18,11,[],I,,,"[{'role': 'speaker', 'text': 'leaning on one foot to the left, with tail or other foot in the air on the right', 'playerId': 'DugA5xyi4CvXJWvaC'}]",277583,,39,spr-buttons,selection,[],
3042,foobar,,,,,,,,0.0-3.0-1.18,,[],,,,,278495,,40,spr-buttons,feedback,[],
3042,foobar,3847,True,K,,,,LsnHGPbRLPabWRBSi,0.0-3.0-0.19,10,[],K,,,"[{'role': 'speaker', 'text': 'ok it looks like a woman in a dress praying', 'playerId': '8E5cNEk3uBc5sktkX'}, {'role': 'listener', 'text': 'Aimed right', 'playerId': '2RCjqweynJHvehBGo'}, {'role': 'speaker', 'text': 'facing right', 'playerId': '8E5cNEk3uBc5sktkX'}, {'role': 'listener', 'text': 'facing left', 'playerId': 'bhgdLERsJZsyygLSq'}, {'role': 'listener', 'text': 'Kneeling', 'playerId': '2RCjqweynJHvehBGo'}, {'role': 'listener', 'text': 'not the crouching one right', 'playerId': 'bohdK5Fufz9C4SewN'}, {'role': 'speaker', 'text': 'kneeling', 'playerId': '8E5cNEk3uBc5sktkX'}, {'role': 'listener', 'text': 'the one whose left side is like a rectangle', 'playerId': 'bhgdLERsJZsyygLSq'}, {'role': 'listener', 'text': 'it looks similar to the other praying one right', 'playerId': 'bohdK5Fufz9C4SewN'}, {'role': 'listener', 'text': 'or is it the one that looks like a swaddled baby', 'playerId': 'bhgdLERsJZsyygLSq'}, {'role': 'listener', 'text': 'Kneeling, arms to the right, upright', 'playerId': '2RCjqweynJHvehBGo'}, {'role': 'speaker', 'text': ""but it's a triangle"", 'playerId': '8E5cNEk3uBc5sktkX'}, {'role': 'speaker', 'text': 'but kinda a rectangle', 'playerId': '8E5cNEk3uBc5sktkX'}, {'role': 'speaker', 'text': 'her hands are straight out', 'playerId': '8E5cNEk3uBc5sktkX'}]",282343,,41,spr-buttons,selection,[],
3042,foobar,,,,,,,,0.0-3.0-1.19,,[],,,,,283260,,42,spr-buttons,feedback,[],
